Current_time,MagX,MagY,MagZ,AccX,AccY,AccZ,GyroX,GyroY,GyroZ,Temp,Pres,Yaw,Pitch,Roll
2021-10-16 19:27:47.187617 93.125 198.0 -61.75 -174 -5 16335 0 1 0 25.29 1020.4365234375 169.65993475941372 -2.25050946580386 -2.7424596360525975
2021-10-16 19:27:47.530661 90.75 197.75 -66.5 -171 9 16344 -1 -1 0 25.28 1020.4365234375 160.81273571935137 -4.01624389389211 -4.676381365203912
2021-10-16 19:27:47.874305 93.5 199.5 -64.875 -172 24 16336 -1 1 0 25.29 1020.43505859375 153.29085543735835 -5.0271469700764175 -5.686855973832798
2021-10-16 19:27:48.216274 93.875 199.25 -66.5 -190 3 16330 -1 0 0 25.3 1020.473388671875 147.0142743034207 -5.540594070202489 -6.121775696101678
2021-10-16 19:27:48.557220 92.375 198.125 -68.125 -174 7 16346 0 1 0 25.3 1020.422119140625 141.76886542709838 -5.727106350402319 -6.147958436225006
2021-10-16 19:27:48.901452 93.875 198.0 -64.125 -172 15 16331 -1 1 1 25.3 1020.49072265625 137.3597372967464 -5.555331244455136 -5.828018583979601
2021-10-16 19:27:49.240728 97.375 201.375 -64.875 -164 8 16340 0 0 0 25.3 1020.47705078125 133.75008368436505 -5.192480670144358 -5.3402919019216215
2021-10-16 19:27:49.584862 96.625 202.125 -62.875 -154 4 16339 -1 1 -2 25.29 1020.462646484375 130.66802293493143 -4.750356588706795 -4.790529329646605
2021-10-16 19:27:49.933203 98.75 204.875 -66.125 -170 14 16344 -4 1 1 25.3 1020.449951171875 128.1754042374607 -4.255148920060444 -4.228087747253952
2021-10-16 19:27:50.274915 94.625 204.625 -67.375 -180 6 16346 1 1 1 25.29 1020.492431640625 125.9516008075484 -3.810806741481032 -3.719601587403492
2021-10-16 19:27:50.610250 98.875 203.625 -64.875 -174 11 16353 -1 2 -1 25.3 1020.463134765625 124.27989265002766 -3.2848241037518955 -3.1937501466471803
2021-10-16 19:27:50.949047 97.5 204.0 -67.625 -163 1 16361 0 -1 -1 25.29 1020.431396484375 122.8396438629758 -2.8424294630285827 -2.745993042192176
2021-10-16 19:27:51.284859 97.625 202.25 -67.625 -185 3 16341 1 0 0 25.29 1020.437255859375 121.68545164123414 -2.4002643136381883 -2.3382445555887728
2021-10-16 19:27:51.624410 135.0 211.375 -64.625 1362 697 16437 481 -1548 -180 25.31 1020.4912109375 121.83098956603786 -5.1084913968500985 -0.5423737920686041
2021-10-16 19:27:51.960836 218.25 230.0 -92.75 7838 1730 13941 704 -2791 -39 25.32 1020.46923828125 124.40533439485816 -13.884960522584427 2.1650145662744795
2021-10-16 19:27:52.308684 258.125 237.0 -120.125 11836 1993 10247 233 -1895 73 25.32 1020.454345703125 127.42036367387747 -23.51791702510073 3.799562332349936
2021-10-16 19:27:52.647783 268.625 238.25 -136.0 13961 2632 8239 100 -390 52 25.32 1020.488525390625 129.68727888552436 -31.25758248087192 5.468768572850967
2021-10-16 19:27:52.991768 275.125 237.0 -136.75 14154 2586 7551 -151 -3 69 25.33 1020.455810546875 131.36644130367506 -37.62081603697035 6.477934082636009
2021-10-16 19:27:53.334491 272.875 238.375 -140.125 14403 2508 7356 0 -318 86 25.34 1020.443359375 132.2282150152297 -43.4347416288928 7.643457816399588
2021-10-16 19:27:53.675212 279.75 235.25 -149.375 14792 2586 6434 -9 -314 -45 25.34 1020.445556640625 132.30962130253224 -48.75112145028672 9.161392290739643
2021-10-16 19:27:54.025742 283.375 238.125 -153.5 15066 2599 5792 -7 -65 -22 25.35 1020.463134765625 131.8076779614625 -53.06471910155788 10.81060579209843
2021-10-16 19:27:54.371217 290.25 242.875 -162.0 15373 2843 5015 -7 -266 -14 25.36 1020.44384765625 130.40555248953552 -57.25418554402552 13.101979591384586
2021-10-16 19:27:54.716761 290.0 241.625 -167.5 15451 2744 4777 11 -93 -22 25.35 1020.455322265625 128.7872147552603 -60.43990230150691 15.358370547074975
2021-10-16 19:27:55.061205 290.875 245.625 -169.75 15626 2929 4091 -2 -106 3 25.36 1020.4443359375 126.30222313981038 -63.30236197544662 18.233144850144193
2021-10-16 19:27:55.399353 285.5 244.0 -164.125 15432 2823 4447 28 49 -38 25.37 1020.43994140625 123.85582765373832 -64.90539804242954 20.78639085919154
2021-10-16 19:27:55.744069 272.625 237.0 -136.625 14797 2806 6227 17 909 92 25.37 1020.447021484375 123.59697495816565 -63.43274141295489 20.762870772486334
2021-10-16 19:27:56.089202 246.375 234.75 -110.0 12662 1958 9543 -152 580 130 25.37 1020.428466796875 125.13517891682292 -59.73394988132764 17.88655532503915
2021-10-16 19:27:56.427889 217.375 231.5 -92.25 11166 1777 11477 27 1129 255 25.37 1020.47119140625 126.99924153873235 -54.16930587515832 14.71241725781303
2021-10-16 19:27:56.767241 161.875 218.625 -79.875 7416 1077 14736 -225 2238 228 25.37 1020.44677734375 128.91180934592103 -44.54206335535324 10.359182371904641
2021-10-16 19:27:57.114555 112.5 218.125 -85.0 2789 761 16313 -28 1860 118 25.38 1020.4248046875 128.66625611325236 -34.33608723969896 7.564529920034234
2021-10-16 19:27:57.458240 75.0 224.625 -95.375 -2297 618 16404 56 1193 113 25.38 1020.467529296875 126.9168537386194 -24.3822680156414 5.569741735198895
2021-10-16 19:27:57.801057 57.75 221.75 -107.0 -4866 766 15451 -59 528 4 25.38 1020.481689453125 124.39553122321539 -15.96235738212224 4.187046508712586
2021-10-16 19:27:58.144408 44.625 219.0 -115.25 -6102 644 14908 -23 335 -22 25.38 1020.458984375 121.56557861607442 -8.84730113837477 3.0761607171418217
2021-10-16 19:27:58.485455 35.375 225.5 -127.75 -7379 787 14800 -86 788 -115 25.39 1020.4423828125 118.43558576214797 -1.9381114742311378 2.1852743532084267
2021-10-16 19:27:58.825192 24.75 226.25 -140.125 -8842 589 13811 111 807 4 25.39 1020.464599609375 115.24469146932697 4.4203785880428645 1.6251690340987506
2021-10-16 19:27:59.163119 16.875 232.375 -159.0 -10278 944 12861 140 512 133 25.41 1020.435546875 112.03048997270825 9.84953674420749 1.5926905454682945
2021-10-16 19:27:59.507424 8.0 230.375 -167.875 -11287 1454 11711 29 303 -4 25.42 1020.4521484375 108.41459376019128 14.594389258805153 1.940510875101323
2021-10-16 19:27:59.848434 5.875 232.375 -179.0 -12263 1474 10663 55 634 39 25.41 1020.465576171875 104.96025789032859 19.78388716475276 2.521009559744923
2021-10-16 19:28:00.186723 -16386.0 236.25 -198.625 -13337 1804 9544 63 573 -87 25.41 1020.435791015625 93.43937624721113 32.09579315154975 -1.3957556809564087
2021-10-16 19:28:00.525287 -5.875 236.25 -210.875 -14217 1734 8120 90 479 -102 25.41 1020.45751953125 90.41782106213508 35.642765852857686 1.0014680387290924
2021-10-16 19:28:00.864328 -8195.25 234.25 -208.875 -14819 1632 7305 -98 86 -17 25.42 1020.41845703125 78.05272329730904 46.90893350881874 -6.095539269112505
2021-10-16 19:28:01.207050 -32767.625 235.5 -178.25 -13747 1848 9676 122 -1053 -183 25.42 1020.451904296875 67.49282826522598 51.7633785209816 -12.493860431167455
2021-10-16 19:28:01.552330 3.125 234.125 -169.25 -12220 1428 10932 217 -310 356 25.42 1020.46875 70.00090015513567 49.55552272156242 -5.55533252807431
2021-10-16 19:28:01.888671 8199.125 242.875 -163.375 -12083 2100 11055 158 -240 62 25.41 1020.465087890625 87.91951791120223 55.89496844454633 10.61111066376671
2021-10-16 19:28:02.235973 20.0 250.25 -155.375 -10810 3011 11335 251 -253 175 25.43 1020.44482421875 86.78515184184627 51.98387996639906 12.724910385835285
2021-10-16 19:28:02.586061 38.75 269.5 -155.125 -9477 4706 12660 340 -490 365 25.42 1020.47314453125 87.88804206910761 47.27930787161864 15.881717725391916
2021-10-16 19:28:02.924615 58.25 275.625 -152.625 -8510 5622 13430 349 -583 164 25.41 1020.4482421875 89.17840483145133 42.79675228602226 18.22698931036355
2021-10-16 19:28:03.267321 76.5 299.625 -163.375 -6339 7337 12780 1176 -491 263 25.42 1020.467529296875 92.02505668654202 38.110571949062475 23.08902789762202
2021-10-16 19:28:03.614648 93.125 307.5 -177.5 -5228 10143 12147 804 -548 155 25.42 1020.43310546875 95.5849952267216 33.52346845016786 28.42661316698354
2021-10-16 19:28:03.958377 100.625 310.625 -197.625 -4270 11304 10861 720 83 -203 25.41 1020.458740234375 98.79057085202815 30.248576898691447 33.726909965292556
2021-10-16 19:28:04.307970 114.0 324.75 -218.0 -4344 12585 8786 837 -533 500 25.41 1020.46484375 102.60301712122364 26.40345923330351 40.1059194016054
2021-10-16 19:28:04.652851 125.0 317.25 -239.0 -2480 13850 7136 614 -568 278 25.42 1020.44287109375 105.58677061910915 22.05583427020482 46.17035702401118
2021-10-16 19:28:04.988740 130.625 324.375 -251.625 -972 15107 6587 513 -357 84 25.42 1020.46630859375 107.78548215646117 17.708252311466392 51.430464797695
2021-10-16 19:28:05.334399 132.375 318.5 -252.25 -660 15471 5617 85 -191 -71 25.42 1020.44189453125 109.44710179558989 14.299861788655821 55.59960426342579
2021-10-16 19:28:05.680972 135.875 316.5 -259.125 -361 15309 4929 86 73 -42 25.44 1020.4296875 110.93392457544164 11.527835965071388 59.360516459026115
2021-10-16 19:28:06.027755 134.375 315.875 -264.5 -706 15647 4784 36 -54 -11 25.43 1020.45166015625 111.6969645156541 9.487038099096115 62.366740922354424
2021-10-16 19:28:06.367868 135.25 315.125 -262.75 -729 15702 4841 -9 42 -54 25.44 1020.462646484375 112.29440786240954 8.01354253735698 64.6282849019458
2021-10-16 19:28:06.715877 135.375 313.625 -261.125 -585 15704 4376 -3 -15 -34 25.45 1020.46142578125 112.69013960710953 6.700883728158141 66.73551292726232
2021-10-16 19:28:07.062095 138.25 312.5 -259.5 -977 15431 4193 -76 -38 -31 25.44 1020.47998046875 113.00354148336352 5.950110113143484 68.33969836755261
2021-10-16 19:28:07.405320 136.75 320.375 -249.375 -536 15470 4752 -274 31 115 25.44 1020.443115234375 113.4178818301358 4.834416021205319 68.90592280533849
2021-10-16 19:28:07.746404 133.0 317.0 -193.375 -634 14566 9245 -1812 -495 459 25.45 1020.446044921875 113.49941454665571 2.940166328117459 63.5262733420653
2021-10-16 19:28:08.093942 112.625 297.375 -149.25 -1386 10313 11645 -1599 -12 -306 25.45 1020.474853515625 113.27776025529465 3.529314886054811 56.419180638078814
2021-10-16 19:28:08.436746 95.875 273.75 -117.875 -1558 7147 14752 -1010 330 -597 25.46 1020.46240234375 112.79558302797433 4.814540095280332 48.60060195529767
2021-10-16 19:28:08.782701 85.125 253.0 -99.625 -1557 4911 15275 -845 132 -328 25.46 1020.462158203125 111.95298142013492 5.454617506316426 41.01459318606697
2021-10-16 19:28:09.123691 87.75 237.5 -93.125 -1215 3837 15549 -339 -63 -21 25.46 1020.4814453125 111.40138281542481 5.166563202005145 34.81678013434779
2021-10-16 19:28:09.464780 85.375 227.125 -80.875 -1364 2520 16442 -281 98 74 25.47 1020.47265625 111.17557527158993 5.1395678610837665 28.927569240468472
2021-10-16 19:28:09.808745 80.875 226.625 -77.5 -2140 1355 16365 -81 451 98 25.47 1020.446044921875 110.89857340121323 6.212907998485562 23.7857265175314
2021-10-16 19:28:10.150674 87.5 215.375 -67.25 -1425 1054 16359 -441 -341 -38 25.49 1020.4189453125 110.50121409189363 5.512589504894427 18.8263655229088
2021-10-16 19:28:10.487559 95.875 209.125 -68.5 -200 198 16359 -18 -89 -6 25.5 1020.4697265625 110.83318005649748 4.417733000056493 14.891584656922058
2021-10-16 19:28:10.833630 96.25 207.75 -65.625 -225 201 16356 0 0 0 25.5 1020.436767578125 111.26235363041424 3.7054515532960197 11.833668892213732
2021-10-16 19:28:11.174351 95.5 210.375 -66.75 371 544 16358 4 35 -91 25.5 1020.444580078125 111.44883032207532 2.7549162995784062 9.694580394956256
2021-10-16 19:28:11.513146 117.375 219.5 -69.125 867 421 16095 220 -461 225 25.5 1020.45947265625 112.7917925437789 0.9466767917795448 8.286156179559693
2021-10-16 19:28:11.857391 134.125 226.625 -70.5 2305 1196 16245 131 -259 117 25.49 1020.471923828125 114.39451440291957 -1.1975259602711172 7.6608079903311
2021-10-16 19:28:12.202949 160.625 236.125 -79.25 3784 1809 15943 270 -970 57 25.48 1020.480224609375 116.2714775113607 -4.976579095123473 7.889191315006892
2021-10-16 19:28:12.540420 186.625 243.625 -89.375 6545 2715 14612 256 -864 150 25.47 1020.46240234375 118.62113065445243 -10.064457028691715 8.846436283837004
2021-10-16 19:28:12.891986 201.875 254.25 -99.5 8310 3287 13451 358 -398 -10 25.47 1020.438232421875 120.44934210922025 -15.006368544857407 10.330817250553515
2021-10-16 19:28:13.230574 219.375 269.125 -124.875 10152 4477 12710 604 -608 92 25.48 1020.478515625 121.84533950362314 -20.590354214776543 12.850450742222545
2021-10-16 19:28:13.566334 224.875 289.5 -159.875 10624 6183 9817 921 -649 -369 25.49 1020.45361328125 121.03795417779597 -26.1971498584336 17.796259160392836
2021-10-16 19:28:13.908584 222.625 301.875 -184.125 10927 8143 8576 633 -440 -270 25.49 1020.462158203125 119.11838505317095 -30.609918776523536 23.47848867838316
2021-10-16 19:28:14.252026 218.25 309.375 -202.125 11177 9620 6951 570 93 -220 25.48 1020.449951171875 116.46934108361158 -33.68458201529 29.842590841970054
2021-10-16 19:28:14.591640 202.125 316.625 -220.375 9724 11323 6062 708 101 -619 25.48 1020.4404296875 112.12553315769922 -34.430349742661 37.53159639528859
2021-10-16 19:28:14.926194 184.625 323.5 -233.0 7923 12793 5731 398 319 -558 25.48 1020.454345703125 108.05298984744012 -32.901072107982024 44.311297403825996
2021-10-16 19:28:15.274116 165.25 323.25 -241.25 6177 13878 5570 277 453 -579 25.5 1020.446044921875 104.75266662820768 -29.78579828857475 49.99914643336435
2021-10-16 19:28:15.612651 142.5 315.375 -241.625 3554 15020 5804 113 855 -774 25.49 1020.474365234375 102.68929585949975 -24.42134078334285 54.1966871253074
2021-10-16 19:28:15.954672 121.125 307.875 -250.0 1347 15221 5792 -45 875 -657 25.5 1020.449951171875 101.63072351837607 -18.633153184372887 57.19840986295767
2021-10-16 19:28:16.294613 95.625 303.0 -252.625 -2802 14753 5610 -19 961 -962 25.5 1020.47998046875 101.03493802706187 -10.490342000230884 59.48619070652114
2021-10-16 19:28:16.640381 62.25 297.5 -248.125 -7299 14026 5440 -551 1161 -1133 25.5 1020.43603515625 100.86920160444639 -0.4415025180333342 60.32053498566087
2021-10-16 19:28:16.982563 44.125 287.875 -250.5 -10088 11426 5112 -650 799 -602 25.5 1020.4296875 101.05326854450055 9.06257192502056 60.35759518293557
2021-10-16 19:28:17.325646 29.375 278.75 -246.25 -11684 10324 4905 -847 726 -482 25.52 1020.472412109375 101.41049652257858 17.818094748938083 59.98173819129661
2021-10-16 19:28:17.670560 8199.625 266.5 -245.75 -12822 8122 4839 -929 940 -617 25.52 1020.4404296875 116.51817633859481 28.89775630174965 64.22604561746901
2021-10-16 19:28:18.012745 -5.125 254.125 -241.75 -14509 5780 4310 -560 53 -471 25.53 1020.422119140625 112.65409054684228 37.59355845041099 62.228901648329014
2021-10-16 19:28:18.356322 -15.75 242.625 -217.875 -15088 4253 5075 -729 -714 -279 25.54 1020.415771484375 107.34050072157437 44.17851553403549 57.83903240040884
2021-10-16 19:28:18.694148 -24577.25 227.75 -178.875 -12439 3597 9532 -807 -1246 -91 25.54 1020.43798828125 87.24585543288335 51.382561084182655 38.71120908707896
2021-10-16 19:28:19.034970 11.125 231.625 -153.125 -11505 2250 11354 -432 -935 168 25.54 1020.4423828125 83.35236465992685 49.21814145218694 31.146564771917404
2021-10-16 19:28:19.376942 45.25 246.875 -126.0 -10070 2714 13352 9 -878 556 25.54 1020.431884765625 83.25599792884267 45.55961017093944 26.266898798369105
2021-10-16 19:28:19.718568 92.25 261.25 -109.25 -4034 3852 15199 62 -1171 526 25.54 1020.450439453125 85.68268847314616 38.20167345630324 22.874333320857055
2021-10-16 19:28:20.061619 113.625 265.75 -110.75 -1632 4368 15639 309 -1251 395 25.55 1020.49267578125 88.99521370462864 30.649465141696986 21.230710560406855
2021-10-16 19:28:20.402690 143.0 275.75 -118.625 1455 5964 15156 459 -1060 546 25.54 1020.458251953125 93.95168486784945 22.717893815398988 22.018086817848573
2021-10-16 19:28:20.740334 157.125 296.625 -144.375 3255 7649 14271 1051 -717 383 25.54 1020.45556640625 98.51096638629232 15.304826648907502 25.061829237679675
2021-10-16 19:28:21.078634 172.125 312.875 -178.25 4222 9996 11751 1070 -553 212 25.52 1020.479736328125 102.51797267196588 8.564303487919185 30.009020090686256
2021-10-16 19:28:21.423132 168.75 320.125 -194.625 4289 11661 10785 695 390 -221 25.52 1020.433837890625 105.4900128775054 4.303653234569718 34.7033999596246
2021-10-16 19:28:21.760983 170.125 326.75 -215.625 3986 13259 9318 652 82 -58 25.51 1020.473388671875 107.52177375150585 0.4648681209345525 39.88310189805049
2021-10-16 19:28:22.096768 147.125 325.125 -225.25 2380 13824 7821 264 529 -494 25.51 1020.4873046875 108.176897359234 -0.5589478969595625 44.59524875279098
2021-10-16 19:28:22.441247 116.75 323.25 -228.125 -586 14088 7201 39 1159 -869 25.52 1020.485595703125 108.25836738951493 2.1395799138631366 48.53047640964429
2021-10-16 19:28:22.786703 91.25 312.0 -219.25 -4605 13666 7853 -571 1085 -768 25.53 1020.47119140625 108.16812674167033 7.264808324024226 50.133205506175656
2021-10-16 19:28:23.136607 59.0 301.375 -214.75 -7998 11856 8220 -480 875 -936 25.53 1020.446044921875 107.17505547720963 14.082978007867782 50.46302258367059
2021-10-16 19:28:23.476903 23.125 278.0 -211.25 -10587 8563 7707 -863 967 -1173 25.55 1020.479736328125 105.17712527962712 22.62417556024512 48.827807142385176
2021-10-16 19:28:23.818577 32766.125 256.0 -210.625 -13397 5877 7376 -370 531 -603 25.55 1020.47216796875 118.7570485213423 33.27298383379569 53.39070079684058
2021-10-16 19:28:24.164104 -7.75 241.125 -209.875 -13937 4460 7668 -304 -272 -219 25.55 1020.495849609375 111.72586577476818 39.33068789964223 49.37202516419152
2021-10-16 19:28:24.504967 -16385.75 241.875 -179.625 -13144 3192 9026 -378 -743 150 25.56 1020.41015625 95.03823105727312 48.79204254730108 34.71326189883118
2021-10-16 19:28:24.842263 17.5 240.75 -146.125 -10780 3202 11756 -759 -1059 526 25.56 1020.451416015625 91.5615200678283 45.71130130296048 29.01931772039175
2021-10-16 19:28:25.187819 52.75 243.875 -120.25 -7696 2741 14040 -566 -1410 616 25.56 1020.44091796875 90.22678735348872 40.137151524675346 23.62915581681692
2021-10-16 19:28:25.529569 99.875 252.5 -103.0 -5005 2278 16057 237 -1335 617 25.56 1020.4296875 91.45909820963156 34.03644474995636 20.09655250687193
2021-10-16 19:28:25.874399 131.0 271.0 -113.25 -627 3550 16045 633 -1288 -151 25.56 1020.479248046875 93.24387296958837 26.7491959535506 18.68636168313781
2021-10-16 19:28:26.216408 168.0 293.0 -143.5 1743 6859 14240 897 -1163 256 25.57 1020.44580078125 97.56306393067055 19.319395943717314 21.701520918841585
2021-10-16 19:28:26.564694 158.0 303.25 -163.75 2972 9292 13119 981 471 -216 25.55 1020.451904296875 101.42493370231588 14.508230316150133 26.320272176315594
2021-10-16 19:28:26.904301 126.125 309.625 -179.125 822 11048 11935 432 509 -678 25.55 1020.451416015625 103.17659758637936 12.121922588361786 30.517382124593517
2021-10-16 19:28:27.250457 78.0 299.75 -193.75 -3396 11539 10551 -205 1712 -945 25.55 1020.485107421875 103.85159822123667 15.054917367045825 33.90340834176344
2021-10-16 19:28:27.591621 25.25 282.125 -229.0 -10173 10086 7343 -294 2919 -1470 25.56 1020.441162109375 103.63729058639693 24.757734683714997 37.07360911543417
2021-10-16 19:28:27.929925 24576.875 264.625 -225.25 -14711 6569 5288 -780 -144 -595 25.56 1020.44873046875 117.99730489243736 35.198201984209476 44.49830528547129
2021-10-16 19:28:28.273938 -8.375 250.75 -215.375 -14009 4372 7319 -205 -168 -207 25.56 1020.452880859375 110.78684447855929 40.52010535482933 41.73667787481837
2021-10-16 19:28:28.617666 -13.5 239.25 -201.5 -13370 3545 8189 -261 -507 -428 25.57 1020.4482421875 102.98517475246837 43.97817005854426 37.40259795078101
2021-10-16 19:28:28.957612 -32767.5 229.0 -163.0 -12477 2071 9843 -191 -1463 -74 25.57 1020.462890625 84.78796940119189 50.25278001979843 21.581546206227536
2021-10-16 19:28:29.303027 21.125 233.125 -138.375 -10115 1944 12726 -85 -915 -98 25.57 1020.4560546875 81.8421230555162 46.58599226576825 17.69418419727354
2021-10-16 19:28:29.645517 54.625 235.875 -108.25 -6754 2208 14706 0 -1586 190 25.58 1020.450927734375 82.08866155877257 40.20117749940864 14.876039437658227
2021-10-16 19:28:29.988659 78.5 236.75 -95.125 -2772 2290 16225 -106 -1048 163 25.58 1020.447998046875 84.32932277735573 33.321230659109006 12.716632128350792
2021-10-16 19:28:30.333210 86.0 231.375 -94.25 -3200 1639 15775 -133 108 -36 25.58 1020.4814453125 86.80955231900137 29.972189140850467 10.773670492275548
2021-10-16 19:28:30.676088 126.125 232.875 -89.5 -648 1675 15814 81 -1687 452 25.59 1020.4736328125 90.96110539668453 23.292654537118548 9.880205594332221
2021-10-16 19:28:31.016444 140.5 239.75 -92.5 1342 1766 15602 238 -518 227 25.59 1020.4765625 95.31569079240624 18.150358935499895 9.672981333146888
2021-10-16 19:28:31.359585 140.125 259.0 -103.625 2722 3179 15806 758 156 203 25.59 1020.480712890625 99.28402624764958 13.58086530034194 11.456587305928002
2021-10-16 19:28:31.700446 133.5 273.5 -120.5 2414 5360 14859 474 495 9 25.59 1020.51611328125 102.34638784156532 10.216712404027145 14.201152362207342
2021-10-16 19:28:32.045507 90.625 277.5 -129.125 -1590 6372 15177 185 1445 -367 25.58 1020.4501953125 103.2294415012503 11.495476049284028 16.40214061924198
2021-10-16 19:28:32.386053 46.0 270.0 -154.875 -7171 6218 13188 -70 1788 -367 25.58 1020.464599609375 102.49960252510152 16.95494451136933 18.008793394118154
2021-10-16 19:28:32.730269 40.0 253.25 -134.625 -8466 4646 12103 -426 -657 -562 25.58 1020.472412109375 99.94973088151627 19.424461979685255 17.51720111553027
2021-10-16 19:28:33.068945 60.5 240.625 -101.375 -7029 2628 14275 -33 -1856 -361 25.59 1020.490234375 98.26387401914128 18.39399145543479 15.586048909111184
2021-10-16 19:28:33.418043 103.875 244.875 -90.25 -1059 3177 15732 53 -1556 34 25.59 1020.4970703125 99.88115249648702 13.48728331289807 14.58841997641961
2021-10-16 19:28:33.753807 108.5 248.0 -88.875 1644 3851 15693 43 111 423 25.6 1020.47998046875 102.9030542847274 9.754855078110394 14.641278370189092
2021-10-16 19:28:34.097616 102.125 252.375 -90.875 -212 3593 16043 88 205 178 25.61 1020.50146484375 104.67461215096334 8.24089663973231 14.416512038393675
2021-10-16 19:28:34.442875 109.875 258.0 -93.25 -372 3776 15220 -308 -547 545 25.61 1020.4833984375 106.64397128164133 5.965069046908485 13.955623918120565
2021-10-16 19:28:34.784641 117.0 240.0 -83.5 359 2294 15576 -349 -520 -925 25.61 1020.486083984375 106.69202407998092 4.172725520100865 12.142441226778587
2021-10-16 19:28:35.125677 108.75 224.625 -76.5 1239 2116 15278 -619 629 -545 25.62 1020.49609375 107.69078398873769 3.5750106486607818 10.325055679903379
2021-10-16 19:28:35.466446 94.0 215.125 -73.375 -598 1737 16339 -196 375 -247 25.61 1020.488525390625 108.33623395592991 4.013223247986709 9.145689282796598
2021-10-16 19:28:35.813814 65.125 197.625 -88.875 -4500 489 17775 -280 1193 -297 25.61 1020.4765625 107.66308341220734 7.889490089704012 7.088862540901668
2021-10-16 19:28:36.154884 58.0 178.0 -88.875 -4225 -1374 15703 -1432 284 17 25.61 1020.44482421875 106.80629125450201 9.603885067156323 2.4069784024127214
2021-10-16 19:28:36.494460 46.625 162.25 -91.625 -5472 -3347 14961 -634 435 270 25.62 1020.44140625 105.71010911643785 11.89164154719918 -1.6562174323090812
2021-10-16 19:28:36.841533 55.25 159.5 -88.25 -5504 -4406 14950 -172 -219 263 25.63 1020.498779296875 104.99931470488735 12.977376522836629 -4.950733998913711
2021-10-16 19:28:37.182636 73.375 186.25 -77.75 -4376 -3462 15479 1172 -1026 76 25.62 1020.487548828125 105.0111308884884 12.112717944337685 -4.795142729069208
2021-10-16 19:28:37.527330 115.0 222.875 -72.5 -67 88 17184 1121 -1057 -307 25.63 1020.498046875 106.43646675415538 8.60853540185393 -1.8703208983677115
2021-10-16 19:28:37.872536 99.25 234.5 -82.5 749 2291 15799 325 1212 -26 25.63 1020.478271484375 107.37915756157098 8.218515791717898 0.9072151031353706
2021-10-16 19:28:38.218169 79.375 247.625 -96.375 -1723 3313 15743 675 355 -502 25.63 1020.458984375 106.5209696537048 8.16477718439098 4.092668097683087
2021-10-16 19:28:38.564454 29.125 224.75 -124.0 -6510 1907 14739 -768 2048 -82 25.62 1020.5 104.45325574868161 13.389010564257935 3.3710058672784577
2021-10-16 19:28:38.905482 29.625 235.75 -130.75 -9753 1112 14546 141 928 228 25.62 1020.491455078125 102.55976206858342 17.86282380012983 3.637266538995093
2021-10-16 19:28:39.244668 68.875 251.375 -109.625 -6856 3289 14987 898 -2013 84 25.63 1020.459716796875 102.2242747513819 15.970552004592394 6.672513193330044
2021-10-16 19:28:39.592295 95.125 251.5 -93.5 -2307 3780 14229 -57 -1125 -93 25.63 1020.46630859375 103.11414328001044 13.05946682426224 8.367619570289143
2021-10-16 19:28:39.934493 117.625 241.75 -79.125 174 3977 16611 -150 -1055 -195 25.64 1020.4912109375 104.86936841420182 9.096413432775858 9.279058183841858
2021-10-16 19:28:40.276896 88.375 229.5 -80.625 969 3578 16406 -170 1772 -757 25.64 1020.463623046875 105.06857969523794 9.335682396994844 9.635849107599405
2021-10-16 19:28:40.622157 51.75 220.625 -97.375 -2972 3014 16717 -167 1320 18 25.64 1020.511962890625 104.44001527430149 11.091878292183674 9.505399172357068
2021-10-16 19:28:40.965362 23.625 206.875 -116.0 -6818 1961 14533 -1053 1413 357 25.63 1020.4619140625 102.88108030583163 15.123574255855393 7.606217173376817
2021-10-16 19:28:41.304706 39.0 166.125 -94.625 -7550 -2731 15028 -1465 -368 -502 25.64 1020.46728515625 99.96324096616105 16.516686737780716 1.6790129984804534
2021-10-16 19:28:41.638419 98.125 175.875 -68.75 -3436 -2876 14966 783 -2749 -102 25.64 1020.50927734375 101.45161608790785 12.792728582138333 0.27781829374711225
2021-10-16 19:28:41.980956 127.375 189.375 -65.375 895 -1962 16032 496 -719 -72 25.65 1020.465576171875 104.56936718587566 9.684708805836424 -0.20313453758497158
2021-10-16 19:28:42.319233 144.75 223.5 -72.0 3621 910 16086 738 -429 27 25.64 1020.488525390625 107.80859420693457 5.279747715464239 1.9867607054945164
2021-10-16 19:28:42.662613 115.5 225.25 -75.875 3190 1289 14815 -23 1300 -254 25.65 1020.455322265625 109.10732384716584 3.912878543769246 2.7291574982416225
2021-10-16 19:28:43.003013 72.375 229.75 -89.5 -1206 2257 15808 -5 1656 -65 25.64 1020.47998046875 108.64338032759102 6.242402876209167 3.8179689947893665
2021-10-16 19:28:43.344331 24.375 243.125 -136.875 -6194 3227 15050 558 2570 65 25.64 1020.4853515625 106.63280094422957 12.07001735679764 5.969491336764646
2021-10-16 19:28:43.683222 -32767.125 240.375 -161.375 -10609 3696 11592 -478 1094 -138 25.64 1020.482177734375 95.61850713597015 22.7748715323361 3.769856628919276
2021-10-16 19:28:44.023943 46.5 244.375 -118.625 -9885 2038 12810 241 -2666 179 25.64 1020.474853515625 95.12018277760552 21.608636131319003 5.085148438288809
2021-10-16 19:28:44.366032 80.625 245.0 -102.5 -4324 4263 14579 -82 -896 -15 25.64 1020.45654296875 96.84472310858308 19.49090587295865 7.456378770273994
2021-10-16 19:28:44.707282 96.75 221.625 -77.625 -1504 2247 15773 -509 -1390 -278 25.64 1020.4814453125 98.54744047834382 15.185789170357257 6.737836274799549
2021-10-16 19:28:45.050980 94.625 182.25 -68.5 -277 -309 16085 -1037 -85 -381 25.65 1020.455078125 100.43202884134072 13.05222558710556 3.492364978570194
2021-10-16 19:28:45.394442 71.25 145.25 -78.625 -1388 -3313 16378 -459 442 -91 25.66 1020.456298828125 101.2917557897138 12.83662693594465 -0.286860035180448
2021-10-16 19:28:45.739933 64.125 139.875 -93.0 -4034 -4687 15617 21 256 -11 25.65 1020.493408203125 101.30582557259525 14.094599756087593 -3.6306620318767195
2021-10-16 19:28:46.082369 48.25 142.125 -104.75 -5325 -5145 15496 -283 391 300 25.66 1020.468017578125 100.57795714281247 15.289081932862887 -7.102136876141701
2021-10-16 19:28:46.425237 33.75 192.375 -106.75 -6797 -4288 14864 1026 946 688 25.67 1020.481201171875 99.41358591478011 17.496397370015643 -7.338184602902601
2021-10-16 19:28:46.760940 48.25 232.25 -108.375 -6071 1467 15058 1231 -53 397 25.67 1020.477294921875 99.70399405790589 17.713127358060856 -2.70910077258616
2021-10-16 19:28:47.109210 55.125 249.25 -114.125 -5223 3351 14470 366 -154 71 25.66 1020.435546875 99.82563940229088 17.403721650116342 1.1384802647338215
2021-10-16 19:28:47.451205 57.625 240.75 -102.375 -5664 3600 14879 -103 -388 -93 25.66 1020.495849609375 99.79278072503726 17.24746745890208 3.534074865576379
2021-10-16 19:28:47.789438 59.0 201.375 -86.75 -4217 1884 15559 -545 -551 -295 25.66 1020.45361328125 99.45638081091927 15.971884782826425 3.327034229580252
2021-10-16 19:28:48.133224 64.375 152.25 -82.875 -3480 -2078 15935 -995 -72 -416 25.66 1020.48779296875 99.17325867815254 15.612216339547125 -0.5475744146879975
2021-10-16 19:28:48.476203 71.25 136.0 -92.25 -3467 -4205 15538 -366 114 -137 25.67 1020.4580078125 99.38502313774629 16.025731784956623 -4.111499128454939
2021-10-16 19:28:48.821573 103.75 198.0 -70.375 -1544 -1805 16274 1357 -1382 444 25.68 1020.44921875 102.23538492237566 12.76452899916411 -2.131552022618253
2021-10-16 19:28:49.162426 123.875 210.75 -73.625 1775 784 16378 19 -844 273 25.67 1020.473388671875 105.56134794687856 8.554721505463055 -0.6181008503713407
2021-10-16 19:28:49.500288 147.375 228.5 -73.375 3598 1610 15755 306 -656 201 25.68 1020.485107421875 109.02181721430927 3.958439844383552 1.592790018234388
2021-10-16 19:28:49.844412 171.625 228.875 -75.875 5836 1951 15145 71 -752 -192 25.68 1020.48828125 112.22849483878488 -1.5787298887197334 3.1758535880680108
2021-10-16 19:28:50.184255 178.875 247.375 -85.75 7637 2923 13787 282 0 28 25.68 1020.484619140625 115.04245836689186 -6.765053137702948 5.483547238321472
2021-10-16 19:28:50.531464 148.75 251.75 -84.75 6257 4741 14658 120 656 -568 25.68 1020.46533203125 115.23891100220465 -8.90905649979387 8.335532141924729
2021-10-16 19:28:50.874827 105.0 246.625 -89.375 2288 4231 16026 48 1314 -97 25.68 1020.450927734375 114.85526613812081 -6.797474661832633 9.74736495057794
2021-10-16 19:28:51.212666 54.25 234.375 -102.625 -2827 3754 15669 -229 2085 -441 25.68 1020.4931640625 112.58664726422401 -0.5366422173432941 9.917494417979814
2021-10-16 19:28:51.558638 22.25 210.75 -118.125 -6938 2438 14282 -734 769 -268 25.68 1020.4560546875 109.29120317140274 4.964139801020365 8.402970791733853
2021-10-16 19:28:51.900206 17.625 156.5 -123.625 -9428 -2000 13444 -1459 -88 -617 25.67 1020.442626953125 105.50548079476903 9.436574981970127 2.919932507676059
2021-10-16 19:28:52.243288 49.625 140.0 -96.75 -6846 -4908 14733 -289 -1351 -256 25.69 1020.4716796875 104.05226749021814 10.404219202494527 -1.7987798531191441
2021-10-16 19:28:52.585211 93.625 151.875 -67.875 -1265 -4407 15239 -29 -1033 21 25.7 1020.47314453125 106.07157328033104 8.892514238610373 -4.569510996209707
2021-10-16 19:28:52.922970 127.25 191.875 -64.625 1327 -2343 15932 598 -1010 51 25.69 1020.467529296875 108.99425518815347 5.617981326925163 -4.0586688890927745
2021-10-16 19:28:53.265744 151.625 208.875 -66.875 3925 -241 15867 467 -584 115 25.7 1020.462646484375 112.39100429472559 1.590740298511545 -2.212990364811666
2021-10-16 19:28:53.611290 154.375 234.25 -78.25 5486 1446 15136 679 -185 -122 25.7 1020.463134765625 114.41654660274293 -2.6738180535608014 0.6429108537415716
2021-10-16 19:28:53.952097 140.75 242.875 -79.375 4299 3737 16056 -39 561 -151 25.69 1020.470703125 115.34800617401234 -4.190663805415896 3.3496033987005287
2021-10-16 19:28:54.287624 124.125 246.25 -82.25 2998 3522 15613 230 465 -89 25.7 1020.468505859375 115.5042394738727 -4.839657848672878 5.726354382513481
2021-10-16 19:28:54.635663 123.75 249.625 -83.75 1362 3641 16263 178 -36 -43 25.7 1020.484619140625 115.54220509865637 -4.82608877837812 7.5030401338643795
2021-10-16 19:28:54.976170 114.875 244.0 -86.75 1925 4159 15649 -27 240 -26 25.69 1020.478759765625 115.34884230283086 -4.913266254572751 9.047740258800408
2021-10-16 19:28:55.322444 84.625 224.0 -84.0 -823 2606 16399 -555 831 -358 25.68 1020.47802734375 114.05888358809756 -2.1100802866486563 8.172723617210462
2021-10-16 19:28:55.660580 70.125 190.875 -82.25 -2442 608 15705 -1013 416 -335 25.7 1020.463623046875 112.83021949021023 0.6762578536292393 5.345521560823198
2021-10-16 19:28:55.998653 41.625 160.75 -98.375 -4527 -2099 16428 -631 1015 -219 25.7 1020.435791015625 110.9798183353454 4.492549172291907 1.5435471154557825
2021-10-16 19:28:56.346563 22.25 145.125 -117.0 -7444 -3747 14236 -100 182 -108 25.7 1020.4951171875 108.43211160844669 7.806965590269287 -2.1190258151569634
2021-10-16 19:28:56.684592 13.625 140.875 -127.5 -8581 -4265 13246 -57 583 -86 25.7 1020.466796875 105.63816403127181 11.47510687686488 -5.467070322318189
2021-10-16 19:28:57.027501 8.875 138.0 -133.25 -9364 -4697 13190 -30 114 11 25.69 1020.48291015625 102.84416304898369 13.700792464487314 -8.2447455728793
2021-10-16 19:28:57.364511 12.0 138.125 -136.375 -9040 -4411 12832 -75 7 -19 25.7 1020.450439453125 100.36512451733286 15.350881335994435 -10.368971025493634
2021-10-16 19:28:57.710859 12.125 139.25 -131.625 -9174 -4573 12709 35 -15 -7 25.71 1020.467529296875 97.99260179960048 16.765708801229234 -11.979700610594302
2021-10-16 19:28:58.049745 19.875 143.0 -124.0 -9135 -4516 12288 -50 -176 -8 25.7 1020.4521484375 96.01464121211758 18.287335080108914 -13.49275574181809
2021-10-16 19:28:58.394456 76.375 183.0 -79.375 -4448 -2394 16218 801 -1877 533 25.7 1020.485107421875 98.67967635570395 15.743165633810245 -10.638416165188644
2021-10-16 19:28:58.739541 121.75 220.375 -72.75 436 617 16259 1142 -1503 142 25.72 1020.44384765625 102.3963645991222 11.21394676918779 -5.563080131058466
2021-10-16 19:28:59.088068 132.75 247.625 -83.375 3794 2750 15403 588 246 0 25.72 1020.470947265625 105.19269198225918 7.323173154633189 -1.0427441712397099
2021-10-16 19:28:59.426043 113.0 256.25 -95.5 1316 4727 15689 256 534 -133 25.72 1020.46533203125 106.6608070013025 5.9927641268952625 3.3096050953745597
2021-10-16 19:28:59.769010 90.5 263.5 -104.375 -861 5448 15607 150 823 -269 25.71 1020.481201171875 106.77729222640424 6.612596886546561 6.928889590188579
2021-10-16 19:29:00.109085 53.5 253.875 -123.875 -4458 5811 14993 -140 1301 -353 25.72 1020.44384765625 105.49963704529956 10.041284208997636 9.480364374271527
2021-10-16 19:29:00.449752 17.25 214.375 -129.375 -8331 2735 12969 -1488 798 -782 25.71 1020.451904296875 101.82823173235839 14.85277526107759 7.326054488896416
2021-10-16 19:29:00.795489 4.5 147.75 -123.625 -10374 -1560 12452 -898 -189 -1187 25.71 1020.455810546875 96.38980403776958 17.962649864237058 2.9858719422133055
2021-10-16 19:29:01.143056 18.125 108.75 -121.625 -7958 -4860 12386 -342 -709 -378 25.72 1020.424072265625 92.79316561656222 18.180132338756696 -2.177385826827215
2021-10-16 19:29:01.484702 50.125 97.875 -109.875 -6618 -5749 14017 -4 -1135 -54 25.72 1020.46337890625 91.93733058836153 18.362639910476712 -6.245541072293999
2021-10-16 19:29:01.828277 87.0 154.625 -72.5 -2548 -4588 15554 1937 -2381 219 25.73 1020.455078125 94.7199745867591 14.786824886355461 -5.138874216161108
2021-10-16 19:29:02.169036 81.0 189.875 -75.625 -432 -423 15920 704 486 495 25.73 1020.46044921875 97.63215039566735 13.770301590780015 -2.88775186850224
2021-10-16 19:29:02.510296 48.5 197.25 -91.875 -2999 728 16022 259 1445 -13 25.73 1020.444580078125 97.68753594303121 15.130598691086048 -1.3362742819423123
2021-10-16 19:29:02.857178 54.5 179.875 -89.625 -5502 -165 15314 -496 -608 -218 25.75 1020.466064453125 97.63597446687113 15.358774873305988 -1.9742482566332227
2021-10-16 19:29:03.203827 83.375 192.0 -71.75 -3154 -352 15999 71 -481 107 25.75 1020.47314453125 99.64315602604184 14.562668009867398 -1.4825043622282426
2021-10-16 19:29:03.544352 94.5 195.125 -65.875 -1013 336 16391 162 -13 -300 25.75 1020.465087890625 101.4241854693864 13.013185794480236 -0.5325672005134294
2021-10-16 19:29:03.884598 96.25 198.5 -67.5 -164 136 16348 -1 -1 0 25.74 1020.477783203125 103.40670632542404 11.075546720583253 -0.10914502512157624
2021-10-16 19:29:04.231539 96.125 196.375 -66.375 -158 144 16340 0 -3 0 25.74 1020.480224609375 105.20161352024064 9.438770264191243 0.2181352741746772
2021-10-16 19:29:04.574295 96.125 196.875 -68.5 -173 145 16345 -1 -1 2 25.73 1020.446533203125 106.7306484655104 8.060931088078434 0.45373698258022277
2021-10-16 19:29:04.915344 95.25 196.25 -67.25 -179 126 16320 -1 -3 1 25.74 1020.485107421875 108.0373920444206 6.883118560256267 0.5993202043003114
2021-10-16 19:29:05.254420 95.75 193.75 -65.375 -176 124 16336 -2 0 0 25.73 1020.472900390625 109.25583557503425 5.913710698164878 0.7025740562648228
2021-10-16 19:29:05.592888 96.25 199.375 -65.5 -166 153 16331 -1 0 0 25.74 1020.4716796875 110.20403477479985 5.0450429824921015 0.7731076610340321
2021-10-16 19:29:05.937214 94.125 197.375 -66.625 -158 154 16339 1 0 1 25.74 1020.4736328125 110.95044477205602 4.297277064276056 0.8116371853361589
2021-10-16 19:29:06.281447 98.875 198.625 -69.125 -170 142 16335 -2 -1 0 25.73 1020.502197265625 111.77499058083757 3.743680419009061 0.8436976054164022
2021-10-16 19:29:06.616989 94.125 197.25 -66.75 -160 133 16329 -3 -1 0 25.74 1020.48779296875 112.28689776335301 3.2026086090280423 0.8191575293517186
2021-10-16 19:29:06.957636 95.25 197.375 -66.375 -170 136 16328 -1 -2 -1 25.74 1020.5185546875 112.7807392009481 2.776819221435894 0.8035953489797545
2021-10-16 19:29:07.305072 94.875 194.0 -65.5 -166 125 16322 -2 0 0 25.74 1020.486083984375 113.2618944720973 2.4378518357226175 0.7809624159144593
2021-10-16 19:29:07.647955 97.625 196.125 -65.0 -189 117 16335 -1 0 0 25.74 1020.46533203125 113.75231739614186 2.1881184668660327 0.7595431365951313
2021-10-16 19:29:07.992535 94.25 195.375 -70.125 132 211 16399 65 58 -230 25.77 1020.44287109375 113.66685697338907 1.7773368402741765 0.871315117327203
2021-10-16 19:29:08.333417 91.5 197.5 -70.5 -506 898 16948 719 -230 -519 25.77 1020.490966796875 113.03494471131667 1.4814734821055529 2.3805073901855
2021-10-16 19:29:08.668689 125.5 245.125 -75.0 439 2758 15955 1304 -1344 -383 25.78 1020.501708984375 113.14928198334782 -0.970057082735015 5.9601887520249255
2021-10-16 19:29:09.014446 142.75 281.875 -104.25 3301 6345 14499 1050 -696 -318 25.77 1020.499267578125 113.17642368546782 -4.168258375036281 11.274793050344686
2021-10-16 19:29:09.359872 139.125 305.0 -136.5 3734 9754 11820 1306 -459 -353 25.77 1020.5048828125 112.345618699003 -6.849932839766658 18.95642257501531
2021-10-16 19:29:09.704427 141.75 311.875 -144.5 4042 10342 10678 189 163 330 25.78 1020.499755859375 112.4422205557614 -8.773242612505648 24.3135523306623
2021-10-16 19:29:10.048512 147.375 319.875 -165.75 4378 11410 10618 462 -659 94 25.78 1020.47998046875 111.46059672934364 -11.353592480286425 29.717979518831612
2021-10-16 19:29:10.395425 152.25 328.75 -190.0 4606 13139 8251 859 -902 27 25.78 1020.474853515625 109.74688566500616 -13.909503412608554 36.81294808502494
2021-10-16 19:29:10.734858 145.125 328.25 -215.5 4819 14057 7437 677 -95 -299 25.78 1020.488037109375 107.98084403682616 -14.627896980787922 43.08200765073376
2021-10-16 19:29:11.081762 135.875 323.625 -247.25 2783 15343 3877 818 -17 -344 25.77 1020.452880859375 105.86729223584824 -13.709570827148623 51.0109456839685
2021-10-16 19:29:11.423176 132.0 317.875 -267.375 2434 16124 2537 324 -152 -226 25.78 1020.460693359375 104.00872584442085 -12.807584741201744 57.758402787882716
2021-10-16 19:29:11.759186 127.75 308.375 -283.125 2005 15840 1444 630 -197 -37 25.78 1020.483154296875 102.60766942589738 -12.038832800278048 64.36180359471389
2021-10-16 19:29:12.102706 127.625 299.375 -318.875 2086 17261 -2614 1120 -908 431 25.79 1020.46533203125 100.39762003992217 -12.634492940640499 73.16430694081417
2021-10-16 19:29:12.447648 125.375 298.375 -322.625 2780 14538 -6626 11 -437 275 25.79 1020.47802734375 98.30022530726377 -13.48232438596799 81.48577344505264
2021-10-16 19:29:12.793158 123.5 295.625 -329.5 2165 15931 -3926 514 -440 -287 25.78 1020.478271484375 96.77976195400241 -12.270175731457787 87.0908352610418
2021-10-16 19:29:13.134827 123.25 287.5 -351.5 2422 14572 -7899 924 -573 200 25.79 1020.472412109375 94.9671878159389 -12.578182054165698 95.06552647446783
2021-10-16 19:29:13.473462 125.75 289.875 -360.0 2280 13753 -8577 291 -467 319 25.78 1020.470703125 93.4157784603734 -12.792980111208177 101.27084350605156
2021-10-16 19:29:13.817135 125.125 292.0 -366.25 2710 13061 -9926 378 -304 301 25.8 1020.488525390625 92.01903466323942 -13.239782824863296 107.39226819455007
2021-10-16 19:29:14.157246 121.25 303.25 -341.125 2528 14170 -8565 -696 21 -7 25.8 1020.46484375 91.64392990751286 -12.798037711037315 109.32396803871713
2021-10-16 19:29:14.510702 127.875 316.0 -327.625 3158 14813 -5694 -336 337 181 25.81 1020.4619140625 92.30474462379645 -13.55598334246162 109.04331685191652
2021-10-16 19:29:14.849342 132.125 311.75 -339.0 4398 13799 -7005 72 -163 199 25.82 1020.457275390625 91.86626824643353 -14.853461558073136 110.8731880399054
2021-10-16 19:29:15.186154 126.5 312.0 -337.625 4035 13937 -9073 317 -441 -59 25.82 1020.470703125 90.71200729257386 -14.59161212566629 114.10097185307315
2021-10-16 19:29:15.529441 134.0 317.375 -333.75 3122 13531 -6695 -231 212 -180 25.82 1020.462158203125 91.19622986441678 -14.336183642925242 114.1162829910894
2021-10-16 19:29:15.873890 161.25 320.0 -331.0 5368 15335 -7123 -52 279 1065 25.82 1020.455078125 91.4174336494725 -17.7508387173676 114.08319823894062
2021-10-16 19:29:16.213973 218.625 308.875 -313.875 8184 12415 -7483 -512 1846 2265 25.83 1020.431640625 93.49213973328185 -26.28675755194628 113.59252094295114
2021-10-16 19:29:16.554622 238.625 289.5 -329.375 13202 8004 -6164 -302 -1109 1446 25.83 1020.467529296875 90.23630632355953 -33.73618917602357 116.48434192483097
2021-10-16 19:29:16.894700 230.125 279.75 -354.5 12348 5332 -9237 -803 -2808 1332 25.83 1020.440185546875 81.35665422668065 -36.48255977910398 123.87911893993858
2021-10-16 19:29:17.234617 217.625 268.625 -373.0 10567 4309 -12379 589 -62 -388 25.83 1020.517333984375 77.13789602335547 -36.288163008446084 131.2592244489217
2021-10-16 19:29:17.582577 182.875 227.625 -411.25 5654 1028 -15865 2100 -3864 1389 25.83 1020.466064453125 65.44604775660324 -30.14385986178113 146.11890000207617
2021-10-16 19:29:17.924551 196.625 209.25 -412.875 4325 -1438 -15726 524 -573 467 25.84 1020.43359375 60.16487179894139 -27.17188981724792 155.40292359449626
2021-10-16 19:29:18.264358 201.125 203.25 -416.375 4265 -3325 -15542 26 -604 503 25.86 1020.487548828125 55.87555991075159 -24.619247892136258 162.7134619251722
2021-10-16 19:29:18.607380 201.25 201.875 -417.875 4237 -3843 -15890 -257 -228 93 25.86 1020.49853515625 54.05228902827866 -23.585085469021372 165.84757282272037
2021-10-16 19:29:18.954452 205.25 198.5 -416.0 3485 -3589 -15541 205 174 -95 25.85 1020.4609375 53.367128365773 -23.37125788110131 167.76864713443294
2021-10-16 19:29:19.301178 205.25 193.5 -414.75 3640 -4379 -15885 300 7 119 25.85 1020.469482421875 52.401224343543234 -23.353014775004524 169.58782285204785
2021-10-16 19:29:19.643771 198.25 201.875 -416.875 3637 -4102 -16151 -259 -255 203 25.86 1020.501220703125 51.67166930136484 -23.020160755611293 169.13135323190437
2021-10-16 19:29:19.984634 185.75 211.125 -417.25 2317 -2880 -16311 -395 -479 118 25.84 1020.484619140625 51.2729952391989 -21.244106593429287 167.49380681193642
2021-10-16 19:29:20.333979 183.75 213.25 -419.5 1322 -2573 -16278 -95 -515 -61 25.84 1020.468017578125 50.98925225769081 -19.143373113490284 166.88623730305747
2021-10-16 19:29:20.675059 187.25 221.5 -419.375 1129 -2049 -16425 -408 5 155 25.84 1020.50244140625 50.7101143990085 -18.65203242363358 165.4892457934184
2021-10-16 19:29:21.020333 186.5 230.25 -415.125 1270 -1025 -16781 -162 -191 260 25.85 1020.48583984375 50.34512539554581 -18.136632745384524 164.11377739220018
2021-10-16 19:29:21.363188 193.5 226.375 -416.375 1519 -1064 -16388 141 335 -15 25.86 1020.46923828125 50.432006363449396 -18.6899354675617 163.92149559305602
2021-10-16 19:29:21.706009 188.25 232.75 -410.125 1660 -658 -16533 -6 -71 60 25.86 1020.4833984375 50.33665655183031 -18.515803585187058 163.0774111632045
2021-10-16 19:29:22.050893 189.375 241.25 -408.375 982 685 -16578 -153 1063 365 25.86 1020.486083984375 50.57768276470587 -19.602215980540752 161.1158399038886
2021-10-16 19:29:22.388814 181.0 253.125 -409.625 1091 701 -16879 -334 -362 -163 25.86 1020.506591796875 50.67838845543022 -17.707017811039055 159.59362416493863
2021-10-16 19:29:22.735127 186.625 248.125 -408.125 672 1463 -16514 -137 334 133 25.86 1020.500244140625 50.72968111613731 -17.36672986297107 158.72672967770052
2021-10-16 19:29:23.081198 196.0 238.75 -409.75 1940 717 -16933 458 628 105 25.87 1020.49755859375 50.68941079751065 -18.593187278594137 159.98908693878099
2021-10-16 19:29:23.428788 202.0 227.75 -410.75 1530 -702 -16162 531 146 512 25.86 1020.493408203125 49.48203072379302 -18.836800679933067 162.46468612579105
2021-10-16 19:29:23.771546 194.5 231.0 -411.75 2554 -774 -16862 532 -984 66 25.86 1020.4736328125 48.725451917975136 -17.937445695664852 163.51391489151945
2021-10-16 19:29:24.117120 179.875 247.875 -409.875 1001 692 -16599 -396 -304 -195 25.86 1020.467529296875 49.16239989215379 -17.032766978413523 160.75670488032083
2021-10-16 19:29:24.462156 206.75 260.375 -390.625 1588 1800 -16617 -671 1433 -139 25.85 1020.48193359375 50.68412898056755 -20.096282342192918 157.0086691753127
2021-10-16 19:29:24.810315 251.625 283.25 -320.5 9518 4224 -12838 -979 5069 -1377 25.86 1020.467041015625 59.848699379787995 -34.165397462622906 145.90556765141
2021-10-16 19:29:25.151384 250.25 299.875 -244.0 14518 6865 -5115 -359 4383 -1342 25.83 1020.4921875 74.26483633006647 -44.66581976536402 129.27644055311623
2021-10-16 19:29:25.494446 177.125 304.25 -158.25 9554 9187 8999 -992 4498 -1113 25.82 1020.47021484375 99.78748166833255 -46.250358606496725 96.09050801477417
2021-10-16 19:29:25.834585 111.25 285.25 -123.75 1671 7802 13896 -1151 1310 -949 25.82 1020.463623046875 111.05752590061222 -36.14997320068701 74.97497758419229
2021-10-16 19:29:26.178168 62.75 259.25 -116.5 -3371 5268 14682 -697 1051 -607 25.82 1020.4638671875 114.52816996652179 -24.194593647800108 61.65558033484027
2021-10-16 19:29:26.519342 60.875 242.75 -109.25 -4365 2894 15323 -418 -951 -152 25.83 1020.496337890625 113.14452020347969 -16.253614430971652 52.29712413066118
2021-10-16 19:29:26.860601 59.125 238.0 -103.75 -4065 2482 15762 -377 -173 81 25.85 1020.5048828125 112.3048498633198 -9.877924735575785 43.74396373964213
2021-10-16 19:29:27.198699 60.875 238.875 -106.125 -4880 2032 15497 -158 15 -166 25.87 1020.477294921875 110.9805847034974 -3.86020358805417 36.744603917624566
2021-10-16 19:29:27.548088 77.375 234.625 -95.375 -3335 1974 15397 -233 -437 -150 25.89 1020.484130859375 109.92005742284783 -0.8833574285675083 30.564805884773403
2021-10-16 19:29:27.894671 109.125 233.625 -84.5 -1112 1717 16234 11 -1167 -51 25.9 1020.4765625 110.0373515211364 -1.4896148343753735 25.35794875209235
2021-10-16 19:29:28.240054 131.0 235.0 -81.0 2380 1627 16117 -27 -564 83 25.91 1020.490966796875 111.76778315909092 -3.904922823073562 20.9997811961638
2021-10-16 19:29:28.585300 126.875 238.0 -83.875 2442 1889 16008 30 191 73 25.91 1020.480224609375 113.28856018419975 -4.738078224000734 17.911535280865305
2021-10-16 19:29:28.927801 102.5 235.25 -85.125 1210 1893 16042 -155 703 80 25.91 1020.461669921875 113.72687477936866 -3.7101357934059673 15.230174011207419
2021-10-16 19:29:29.275960 85.25 231.375 -88.75 -1415 1526 16644 194 295 -40 25.91 1020.4775390625 112.9858755311328 -1.5273090292399445 13.33041089447181
2021-10-16 19:29:29.620406 78.375 218.875 -82.0 -1957 662 16623 -277 56 72 25.92 1020.471923828125 112.28753569728221 0.17955552132844707 10.523467290050371
2021-10-16 19:29:29.964388 75.75 220.125 -85.0 -1377 506 16252 -52 -110 -149 25.92 1020.46630859375 111.15904437070904 0.8927588023882898 8.518877303757474
2021-10-16 19:29:30.308562 73.375 214.125 -78.625 -1736 254 16200 11 -50 -137 25.92 1020.455322265625 110.27227496892897 1.8411170780692616 6.851694011411903
2021-10-16 19:29:30.648664 75.125 211.0 -80.0 -1972 315 16174 -23 -35 -41 25.93 1020.4775390625 109.80735421948916 2.8164318817639287 5.552677896149804
2021-10-16 19:29:30.992287 71.25 216.75 -82.625 -2154 650 16130 261 -24 198 25.92 1020.458251953125 109.481595769892 3.639260667077125 5.199221553007753
2021-10-16 19:29:31.338783 72.25 214.375 -83.625 -2239 887 16221 -49 48 -11 25.93 1020.521484375 108.9696100913597 4.488668964397993 4.635529078944517
2021-10-16 19:29:31.689691 76.0 212.75 -78.75 -1776 784 16215 -246 -469 -136 25.93 1020.4765625 108.49533838870717 4.142506415457631 3.8370345021362504
2021-10-16 19:29:32.034490 77.125 218.5 -82.0 -1926 1054 15903 -96 -66 76 25.95 1020.48388671875 108.47735185749595 4.599182059005582 3.682250560930627
2021-10-16 19:29:32.377296 70.25 223.625 -85.25 -2851 1543 16384 673 193 -5 25.95 1020.485107421875 108.00062836665995 5.857240619828941 4.974212009726146
2021-10-16 19:29:32.719464 76.375 220.875 -84.875 -1738 1477 16332 73 -146 -173 25.96 1020.473388671875 107.52395834908604 5.647753989591478 5.076762969884097
2021-10-16 19:29:33.067505 83.5 223.75 -81.75 -1146 1746 16360 147 0 -17 25.96 1020.499755859375 107.72171989792426 5.342297819823083 5.528948615650155
2021-10-16 19:29:33.404534 86.625 229.375 -82.125 -1116 1727 16705 -42 -8 130 25.97 1020.477294921875 108.15375150718194 5.037142307461974 5.585099960685231
2021-10-16 19:29:33.741878 96.25 239.0 -96.875 -1429 2453 15770 360 -124 248 25.98 1020.51025390625 108.91746448979056 4.928699557461093 6.892411123272306
2021-10-16 19:29:34.082355 110.125 256.875 -102.375 -876 3510 16038 442 -283 308 26.0 1020.49951171875 109.89002284666047 4.157623589331942 8.812411270374485
2021-10-16 19:29:34.423640 116.875 266.0 -113.5 -61 4824 15175 21 -271 -24 25.98 1020.48193359375 110.30082710897288 3.00427641944683 10.786264929625883
2021-10-16 19:29:34.764232 121.125 265.375 -112.5 414 5045 14909 -48 -72 40 25.96 1020.461181640625 110.92778972076574 2.0036991447817107 12.474882499646215
2021-10-16 19:29:35.107663 124.5 263.25 -114.75 371 4965 15778 -41 121 -37 25.96 1020.4638671875 111.49286634445515 1.5650524096393645 13.53968082527851
2021-10-16 19:29:35.446491 122.5 265.75 -114.125 162 5078 15455 5 110 -53 25.96 1020.4521484375 111.80973359732012 1.323103094997664 14.577419587182375
2021-10-16 19:29:35.789132 117.125 256.75 -105.625 -258 4661 15781 -320 -62 -79 25.95 1020.469482421875 111.91995692192124 1.2016070206970881 14.524561323260444
2021-10-16 19:29:36.135430 120.5 240.875 -89.25 388 2932 16035 -523 -210 -163 25.97 1020.47412109375 112.31053278648882 0.4765115147269159 12.866262906969563
2021-10-16 19:29:36.476236 123.375 239.875 -85.75 1480 2970 16953 -79 -286 -157 25.97 1020.457275390625 112.79107534560596 -0.9670158350522571 12.140104491077373
2021-10-16 19:29:36.823848 147.5 242.25 -84.875 1799 2568 16054 231 -697 -128 26.0 1020.427001953125 114.01191397937937 -2.9409796351872908 11.874356989848543
2021-10-16 19:29:37.163117 210.625 257.625 -106.875 8425 4203 13896 622 -2575 221 26.0 1020.466796875 116.66563554218621 -12.162601327311284 13.75400874469126
2021-10-16 19:29:37.510160 233.5 262.5 -129.25 12029 5006 9447 420 -947 -394 26.01 1020.4716796875 118.35717601426182 -20.765687170944418 16.593526560696915
2021-10-16 19:29:37.851784 273.75 260.875 -164.125 13192 4713 8218 91 -2003 207 26.01 1020.45166015625 120.85029240793722 -30.776243374416463 18.34150242241363
2021-10-16 19:29:38.200915 299.875 261.0 -248.75 18122 4828 -1554 518 -3163 321 26.03 1020.462890625 121.25836830010725 -45.68817689227273 23.34111704322316
2021-10-16 19:29:38.539490 298.75 261.625 -272.375 15091 3505 -5908 24 -5 47 26.03 1020.50634765625 119.29237523961933 -56.13659249938746 29.154564660650745
2021-10-16 19:29:38.884781 274.25 261.125 -333.375 12477 3112 -9831 640 -2356 -341 26.04 1020.4560546875 104.25354399969935 -68.10614417004115 47.61637275713704
2021-10-16 19:29:39.225248 262.375 259.0 -348.5 10794 2961 -12521 109 173 -93 26.04 1020.464599609375 78.2945334343155 -73.71075879302255 75.91651217472162
2021-10-16 19:29:39.572660 264.0 260.25 -349.0 10365 2688 -12735 30 171 -72 26.04 1020.47607421875 45.52075969346075 -73.53263281798178 110.05688430837075
2021-10-16 19:29:39.914776 263.75 264.0 -350.375 10153 2778 -12888 31 79 -47 26.06 1020.468505859375 24.262960480504795 -69.07567555649071 131.9603128033575
2021-10-16 19:29:40.267595 267.875 265.0 -342.25 10785 2783 -12322 -53 432 -92 26.05 1020.502685546875 15.266374963157693 -64.56132338950847 141.00054687058648
2021-10-16 19:29:40.613094 268.875 264.75 -334.625 11271 2998 -11787 -27 229 -59 26.05 1020.473876953125 10.610378170203969 -60.708643772239775 145.3536361075519
2021-10-16 19:29:40.955270 271.625 264.625 -338.0 11599 2992 -11480 -16 182 -17 26.05 1020.451416015625 7.680837067558867 -57.82621060533866 147.8970017294547
2021-10-16 19:29:41.295273 269.25 263.75 -332.0 11609 2977 -11432 4 100 -26 26.06 1020.47607421875 5.667423782406066 -55.48984026676794 149.4216998936024
2021-10-16 19:29:41.634367 273.875 267.375 -326.375 11895 3109 -10838 -51 323 -82 26.06 1020.483642578125 5.116202610504485 -54.349996667476304 149.28012933023638
2021-10-16 19:29:41.974415 273.75 267.375 -324.125 12369 3313 -10401 18 227 -35 26.08 1020.4716796875 4.744547381983351 -53.77321595778894 149.0016222380716
2021-10-16 19:29:42.320407 269.625 264.0 -332.0 12278 3220 -10476 150 -399 98 26.07 1020.453125 2.9297481226285265 -52.5161910377455 150.36947968574717
2021-10-16 19:29:42.659206 269.25 263.75 -342.25 11843 2866 -11326 7 -6 -60 26.08 1020.51611328125 1.4990147422813451 -51.391806127574405 151.4736247734313
2021-10-16 19:29:43.000765 252.375 258.875 -359.375 10070 2341 -13071 -51 -1001 278 26.1 1020.456298828125 -2.6401016387875047 -47.79859997367931 155.20160300573303
2021-10-16 19:29:43.345280 244.75 249.5 -374.75 8566 2070 -14646 349 -1361 80 26.08 1020.487060546875 -6.149960707258638 -42.91475915424795 158.96704792386845
2021-10-16 19:29:43.689462 238.125 247.625 -386.375 7103 1816 -14961 -407 -706 245 26.07 1020.472412109375 -8.527620936735424 -39.20254022093673 160.2914153645593
2021-10-16 19:29:44.032510 234.125 244.0 -392.0 5842 1145 -15651 133 -273 -27 26.06 1020.460205078125 -10.229585104951745 -35.941049180067836 162.23540203762371
2021-10-16 19:29:44.370421 224.875 243.75 -401.875 5368 61 -15549 45 -238 -220 26.05 1020.46044921875 -11.689402399934481 -33.38735208012805 164.07629987088433
2021-10-16 19:29:44.714717 208.5 240.625 -410.25 3001 486 -16410 -12 -344 260 26.05 1020.448974609375 -13.518755344806037 -29.756887406800843 165.43766106337006
2021-10-16 19:29:45.050807 228.625 249.0 -392.875 3375 455 -16608 -196 1275 -212 26.04 1020.46630859375 -13.654900271433545 -30.47660625798513 164.98690555005692
2021-10-16 19:29:45.396575 232.75 269.0 -363.375 8786 2985 -14472 -14 1483 -1057 26.04 1020.49169921875 -11.044236938287012 -35.681852825186304 160.90393630084282
2021-10-16 19:29:45.745184 259.0 288.75 -294.0 11642 5877 -9666 -288 4041 -1232 26.04 1020.487548828125 -3.2061996933242467 -46.94609048229099 149.97066402880145
2021-10-16 19:29:46.083169 225.25 307.0 -183.0 14096 8431 -185 -1001 5303 -1250 26.05 1020.45263671875 18.89002605322905 -59.23138757020713 122.03760358035473
2021-10-16 19:29:46.425092 135.0 306.0 -132.125 5246 8607 12473 -584 3098 -552 26.06 1020.44677734375 50.287412647070305 -58.447640898018946 84.2379397922643
2021-10-16 19:29:46.773572 47.0 274.625 -134.375 -3114 7851 13126 -1124 2350 -1149 26.06 1020.43603515625 66.63609552004938 -46.91995625528073 62.80497556931415
2021-10-16 19:29:47.115602 -32764.375 254.875 -157.875 -7736 5593 12697 -603 1750 27 26.04 1020.442626953125 65.81437837530855 -39.375262543733136 57.99896150590815
2021-10-16 19:29:47.454373 -13.5 237.75 -169.75 -10155 3263 11476 -457 525 -148 26.05 1020.480712890625 72.35172328662523 -28.359175885239786 49.89408367464724
2021-10-16 19:29:47.799213 -20.375 239.375 -186.125 -11965 2904 10680 -42 468 -36 26.06 1020.4765625 77.14759524135619 -16.745117498487986 44.70706876374039
2021-10-16 19:29:48.141899 -25.5 233.5 -206.25 -12860 2502 9317 0 744 -88 26.06 1020.44091796875 80.79381328008213 -4.470269615375771 41.0064604661337
2021-10-16 19:29:48.477580 -34.75 228.375 -236.375 -14182 2736 8522 56 787 -101 26.07 1020.486572265625 82.81643840653983 7.58726722999153 38.63116302087576
2021-10-16 19:29:48.821307 -35.25 214.25 -273.625 -15090 2102 5808 97 1409 -296 26.08 1020.455078125 84.11612688709107 20.343948740700284 37.63249380613317
2021-10-16 19:29:49.163465 -36.875 190.125 -290.75 -15954 2083 3393 190 309 -233 26.07 1020.465576171875 83.12552341908957 30.836918428398167 37.70534296714468
2021-10-16 19:29:49.501064 -35.875 183.25 -304.25 -16346 500 2629 295 476 -4 26.08 1020.468505859375 81.60594363150776 40.5447385529509 37.508944097979125
2021-10-16 19:29:49.845337 -31.0 168.0 -305.75 -16384 665 1363 1 373 -6 26.07 1020.457275390625 79.97352430010746 49.10848517259941 37.75690721969897
2021-10-16 19:29:50.192108 -28.125 155.5 -296.875 -16442 337 1918 109 -27 127 26.09 1020.455810546875 77.0590496096653 55.54780339375227 37.10770037081746
2021-10-16 19:29:50.541668 -22.75 131.375 -287.75 -16141 59 2041 158 119 5 26.09 1020.45361328125 73.34874757822837 61.03944228257126 35.98520461377584
2021-10-16 19:29:50.879414 -25.375 126.375 -284.75 -16251 13 1760 -19 -70 -23 26.08 1020.466796875 69.22373292642246 65.56829118075844 34.19519340212581
2021-10-16 19:29:51.222012 -24.625 131.375 -294.875 -16450 -599 1836 -278 411 -100 26.08 1020.47412109375 64.91474524856712 70.13836896537444 31.33942377588795
2021-10-16 19:29:51.563468 -32.125 146.25 -279.625 -16374 -111 2228 125 -940 86 26.06 1020.475830078125 58.97459276457249 71.61327155309985 26.84128198074722
2021-10-16 19:29:51.904408 -39.25 172.0 -211.375 -15158 -177 5847 102 -2462 509 26.06 1020.45703125 52.46431950404701 67.8230625940059 19.05075107761004
2021-10-16 19:29:52.251200 -19.75 186.875 -146.25 -10802 714 12034 7 -1958 321 26.06 1020.433837890625 50.80622265697336 59.93977348608195 13.04819813250343
2021-10-16 19:29:52.594430 23.75 203.375 -97.375 -6050 1415 15067 255 -1919 112 26.07 1020.452880859375 53.49351221882755 50.756630209507954 9.18280842727959
2021-10-16 19:29:52.934282 41.625 218.875 -90.875 -4356 2110 15609 41 -168 412 26.07 1020.460205078125 59.408492719541684 44.91575685621591 8.08931903996759
2021-10-16 19:29:53.281020 50.625 216.75 -86.125 -3192 2337 15866 -180 -403 109 26.07 1020.4970703125 64.75039101049113 39.20402835796101 6.988863023444103
2021-10-16 19:29:53.624303 50.875 210.625 -83.375 -2277 1961 16073 -8 -367 -179 26.08 1020.490234375 69.01699172316519 33.94606473082354 6.042692294888317
2021-10-16 19:29:53.957842 52.25 213.25 -84.125 -2205 1901 16071 46 -122 20 26.08 1020.474609375 73.37584132409113 29.84515766833595 5.8079758690392325
2021-10-16 19:29:54.299090 57.5 212.0 -78.625 -1970 1813 16080 -115 -28 72 26.08 1020.4453125 77.74018068047666 26.44330467459186 5.5257078282691685
2021-10-16 19:29:54.636813 58.625 213.5 -79.625 -1557 1190 16162 153 -135 279 26.07 1020.47509765625 81.67696796466008 23.04660274749907 5.424070986739382
2021-10-16 19:29:54.978800 60.625 214.75 -79.25 -1513 1839 16149 42 -48 90 26.08 1020.443115234375 85.15600012376082 20.287657860908244 5.701980625492895
2021-10-16 19:29:55.323991 60.375 213.625 -77.375 -1571 1504 16191 5 3 -51 26.09 1020.451904296875 87.90239056362863 18.052917481722815 5.570253830901768
2021-10-16 19:29:55.666935 73.875 199.25 -67.5 -75 -68 16508 -490 -330 56 26.08 1020.445556640625 91.05060230472802 14.899152864504229 3.543216006170544
2021-10-16 19:29:56.013207 71.75 197.875 -67.25 -155 208 16309 -2 -2 1 26.09 1020.462158203125 93.72229863107515 12.76176419538538 2.984721409928419
2021-10-16 19:29:56.352842 75.25 199.0 -63.25 -164 219 16328 1 -1 0 26.09 1020.45654296875 96.27588152354136 10.969800737171253 2.597159691809038
2021-10-16 19:29:56.690101 75.5 199.75 -65.5 -186 203 16337 0 -1 -1 26.08 1020.485107421875 98.4170095998801 9.445957267201946 2.293853772684893
2021-10-16 19:29:57.033916 75.375 198.625 -66.75 -169 192 16339 -2 -2 0 26.08 1020.4580078125 100.23733628272335 8.129447697214356 2.0497788014336353
2021-10-16 19:29:57.371488 76.25 197.75 -65.25 -181 212 16334 -3 -2 0 26.08 1020.443115234375 101.86971757656508 7.022018935034231 1.8737637826400797
2021-10-16 19:29:57.707488 77.625 197.0 -68.875 -179 216 16346 -1 -1 0 26.08 1020.4228515625 103.2966881567322 6.104106949777181 1.7454253988599793
2021-10-16 19:29:58.054791 73.0 195.625 -70.0 -183 199 16329 -1 0 1 26.07 1020.46337890625 104.28466254985527 5.24924575252597 1.600454987647427
2021-10-16 19:29:58.397468 72.75 201.0 -66.875 -194 206 16318 0 0 -1 26.07 1020.459716796875 105.05962473556183 4.497480324165041 1.472905430897319
2021-10-16 19:29:58.738178 76.125 198.625 -65.25 -168 194 16321 0 -2 0 26.08 1020.4638671875 105.95132073729879 3.912507178764401 1.377867624064893
2021-10-16 19:29:59.082404 74.875 198.125 -65.25 -186 199 16324 -1 -2 0 26.07 1020.4287109375 106.64747622465443 3.408559615447803 1.2907645541407984
2021-10-16 19:29:59.424617 77.0 199.25 -66.875 -181 212 16338 -2 -1 -1 26.08 1020.459716796875 107.31498636293182 3.0044290307275414 1.2319955734764716
2021-10-16 19:29:59.767375 70.75 197.5 -67.875 -180 203 16326 0 -2 1 26.07 1020.443603515625 107.58715263223934 2.57003047905929 1.1450449076215605
2021-10-16 19:30:00.115486 71.125 201.875 -66.375 -172 201 16322 -1 -2 0 26.06 1020.4296875 107.78174318575513 2.197604310106596 1.066019881382126
2021-10-16 19:30:00.459680 75.0 197.0 -67.625 -180 217 16326 -1 -1 0 26.06 1020.46875 108.23875698239793 1.9929721849882411 1.0443980027510336
2021-10-16 19:30:00.808163 72.0 198.25 -64.125 -202 193 16320 -1 0 0 26.06 1020.479248046875 108.45191208015076 1.7749569298808945 0.9833305858391278
2021-10-16 19:30:01.146594 55.125 182.0 -75.625 -175 785 16272 35 0 -424 26.06 1020.481201171875 107.40011753651373 1.3734401452518439 1.3508110281838328
2021-10-16 19:30:01.493714 22.0 197.875 -97.5 -3310 283 15821 -207 1200 655 26.06 1020.447998046875 106.34016600357081 4.4065097226993535 0.784865458185522
2021-10-16 19:30:01.835265 26.5 196.125 -92.0 -4948 447 15544 -339 -333 15 26.06 1020.47265625 104.46980372089405 5.8969101696456185 0.2819603971518928
2021-10-16 19:30:02.176438 8196.625 171.375 -101.125 -4699 736 15739 -828 -635 -483 26.07 1020.451171875 116.37059953686393 8.274704166042348 1.098375652760796
2021-10-16 19:30:02.513661 15.25 157.5 -103.875 -6485 -2206 15531 -899 -44 -270 26.07 1020.47265625 111.83906713784437 8.596171421303302 -2.617847969995963
2021-10-16 19:30:02.853151 -8205.25 133.5 -145.875 -7260 -4312 13014 -276 1370 -14 26.06 1020.46630859375 100.05920648943798 16.360171765043845 -8.008361704024606
2021-10-16 19:30:03.195634 -27.25 141.875 -177.0 -12157 -6661 9844 -454 728 -90 26.07 1020.4443359375 95.59769974892819 19.07203167044798 -11.71705539529817
2021-10-16 19:30:03.540380 -10.25 136.0 -168.0 -10829 -6118 10724 56 134 -334 26.09 1020.455078125 91.80376668096125 19.95164511238397 -13.707371015990738
2021-10-16 19:30:03.886453 32766.0 145.875 -171.25 -11582 -6416 8878 -704 685 533 26.1 1020.486083984375 105.33722209380666 30.836401927135068 -12.345200840192687
2021-10-16 19:30:04.232992 9.875 184.125 -172.25 -12475 -4200 8264 227 292 1192 26.08 1020.4443359375 102.16889045945973 31.37711733582287 -12.25753206324973
2021-10-16 19:30:04.574373 8.375 196.0 -173.0 -13580 -2606 8750 -71 -220 283 26.06 1020.47802734375 98.51593229712388 31.638897775891305 -11.693006594107517
2021-10-16 19:30:04.922654 12.875 201.75 -174.25 -14835 -2681 8640 -383 330 319 26.06 1020.458740234375 95.01401733700195 33.67621717127244 -11.849399785220404
2021-10-16 19:30:05.263097 10.25 214.0 -205.25 -15023 -1077 8437 -681 534 221 26.08 1020.45556640625 92.21783975292125 35.83628698484075 -10.736403740287738
2021-10-16 19:30:05.596910 -23.25 233.875 -227.875 -15865 -1980 4022 -635 789 449 26.09 1020.431884765625 87.9053590442684 40.49384120389447 -10.647170808154987
2021-10-16 19:30:05.945625 -4.875 231.25 -221.375 -15595 -481 3027 -821 940 507 26.08 1020.4677734375 85.03247892407815 45.833895845914014 -9.305952863375888
2021-10-16 19:30:06.284582 -11.25 226.25 -258.625 -16353 -757 -658 -87 1151 -348 26.06 1020.4560546875 79.54887815959647 52.338446831836784 -8.496284317391106
2021-10-16 19:30:06.625134 -12.75 204.5 -253.125 -15717 -206 -3591 -651 124 -564 26.04 1020.401123046875 73.71242608899499 58.50136073752781 -8.312737928886666
2021-10-16 19:30:06.970414 -17.5 201.125 -257.75 -15790 -2886 -4307 -135 -43 -57 26.04 1020.415771484375 65.18574885136681 64.30257642829177 -10.73374572741338
2021-10-16 19:30:07.310127 -11.0 189.25 -278.125 -15159 -2840 -5726 -494 961 -548 26.04 1020.41650390625 51.94114211744004 71.62285158923089 -18.070260954624853
2021-10-16 19:30:07.654312 -11.75 170.0 -285.125 -13900 -3093 -7857 -74 252 -745 26.06 1020.409912109375 28.16909320073123 77.80546427397627 -35.18082745170008
2021-10-16 19:30:07.991342 -8.125 135.5 -288.75 -13338 -5319 -7034 132 39 -1136 26.06 1020.4501953125 -13.124429628781776 78.58424269425494 -69.39939233314041
2021-10-16 19:30:08.326853 -24577.375 110.875 -284.5 -12451 -7657 -7242 402 -301 -975 26.07 1020.44921875 -38.86544322515965 74.26267601910624 -95.30798118980488
2021-10-16 19:30:08.670154 24577.375 97.625 -288.125 -11435 -10242 -6450 181 41 -536 26.09 1020.468017578125 -59.541755200289465 72.76785008146364 -115.94878614832894
2021-10-16 19:30:09.006547 8198.75 89.25 -291.625 -10870 -10718 -7400 171 142 -437 26.09 1020.4365234375 -72.25428634802526 70.44289544955524 -127.97968921833602
2021-10-16 19:30:09.351050 15.875 89.5 -305.25 -9084 -11174 -8143 -92 39 -100 26.1 1020.437255859375 -78.21127946934408 62.327961155208634 -126.17076695029337
2021-10-16 19:30:09.688865 30.0 94.125 -340.875 -7756 -9949 -10518 -883 796 -366 26.1 1020.455322265625 -88.40162318702134 53.64075383471333 -131.09074026630677
2021-10-16 19:30:10.035483 36.0 124.0 -366.875 -7607 -8075 -13781 -1298 395 214 26.1 1020.44970703125 -98.03451838553453 46.92322644905946 -138.64721161791354
2021-10-16 19:30:10.376134 31.875 159.75 -376.5 -6492 -3947 -14311 -1198 -438 980 26.1 1020.426025390625 -106.51081610005866 42.99288993212769 -147.65221395840908
2021-10-16 19:30:10.719982 37.875 171.875 -384.875 -5627 -2066 -14462 -627 292 -449 26.1 1020.444091796875 -111.92954822940756 37.23983636991474 -153.91012227322426
2021-10-16 19:30:11.069132 50.25 208.125 -386.625 -4847 1201 -16708 -1503 371 371 26.11 1020.4306640625 -117.72045704161138 32.409546338353664 -163.45304032149284
2021-10-16 19:30:11.407080 65.375 237.875 -389.5 -4814 4297 -17204 -1001 1117 249 26.12 1020.445556640625 -122.56791721967629 27.2618388768463 -171.96523435293503
2021-10-16 19:30:11.752797 79.625 256.125 -385.75 -2494 5905 -15533 -840 312 348 26.12 1020.478515625 -126.1768295911702 22.91467368031932 -179.61923554241665
2021-10-16 19:30:12.093975 83.625 276.625 -377.5 -381 8637 -13672 -583 324 27 26.13 1020.419677734375 -128.66090735036084 18.189166602785846 172.65869646416755
2021-10-16 19:30:12.433151 106.375 292.625 -366.25 671 10311 -13107 -848 -98 102 26.13 1020.43798828125 -130.70466902342972 14.006374127926424 165.12993928927153
2021-10-16 19:30:12.778163 149.0 308.625 -353.75 5565 13265 -9233 -1154 1909 561 26.13 1020.466064453125 -132.22295413817142 4.17685538434977 156.615800306425
2021-10-16 19:30:13.118194 187.875 310.375 -335.25 7548 13541 -5380 272 3179 -490 26.13 1020.415771484375 -130.29354411025767 -6.710733605223364 150.2375749351107
2021-10-16 19:30:13.465423 222.375 317.5 -279.125 8892 14085 -262 -989 2131 -60 26.14 1020.37890625 -126.90747042412684 -15.410216398748327 139.92569534877697
2021-10-16 19:30:13.814513 211.5 312.375 -196.0 7212 13254 6919 -1985 3073 57 26.13 1020.45849609375 -119.41534804182659 -22.211723589370912 124.53980685701823
2021-10-16 19:30:14.162791 198.25 288.625 -140.75 4420 10415 12444 -1848 1801 58 26.13 1020.43115234375 -111.61816627649948 -25.313197068579672 108.3662767108707
2021-10-16 19:30:14.503213 184.625 255.875 -108.25 651 5269 14774 -831 337 -358 26.13 1020.413818359375 -106.42261474723752 -25.35628248896965 95.99290267516231
2021-10-16 19:30:14.846287 175.5 248.125 -99.875 782 3318 16384 -468 904 415 26.14 1020.418701171875 -102.57950922816842 -26.487301701830493 87.55400573151108
2021-10-16 19:30:15.190909 153.125 242.125 -93.0 -2488 2672 17683 -217 1276 174 26.14 1020.433349609375 -99.44084441702425 -24.11563461476708 81.91362216592091
2021-10-16 19:30:15.528845 145.75 240.125 -89.375 -3954 2052 15703 -177 270 104 26.14 1020.4345703125 -99.2719853518646 -20.85955565784158 79.11868418183441
2021-10-16 19:30:15.874259 130.375 244.0 -94.875 -4766 2025 16131 253 588 99 26.15 1020.42919921875 -99.45996121882622 -16.96345119880228 78.19244553744647
2021-10-16 19:30:16.216428 115.625 243.125 -102.875 -6328 2814 13727 26 457 -106 26.15 1020.404541015625 -100.80128252726624 -11.21997668104885 78.69409709520095
2021-10-16 19:30:16.562300 113.0 243.625 -101.0 -8179 3781 14088 53 86 -180 26.13 1020.413818359375 -103.36905116375206 -5.341992916101853 79.92474365183838
2021-10-16 19:30:16.903264 116.25 238.375 -98.25 -7448 2606 13438 -169 -391 -343 26.13 1020.430908203125 -107.48006048568348 -0.6525326207974433 80.06807494140809
2021-10-16 19:30:17.244063 120.125 226.125 -93.875 -5801 1744 16103 -485 -262 -192 26.14 1020.3818359375 -112.55017988947775 1.459481764445478 78.3868494138215
2021-10-16 19:30:17.588393 129.125 227.625 -84.875 -4883 764 15362 239 -246 -322 26.15 1020.44189453125 -118.53803337702871 3.3662454090284037 77.11921361322594
2021-10-16 19:30:17.931246 130.625 235.125 -79.375 -4696 224 15627 -168 -215 -12 26.15 1020.42431640625 -124.91882603454403 4.935043535673678 74.73532113336096
2021-10-16 19:30:18.271983 136.375 231.375 -83.125 -4569 635 16373 -815 -516 -593 26.14 1020.442626953125 -133.26228404633605 7.243341418276049 70.93691415871989
2021-10-16 19:30:18.618426 132.0 238.875 -88.25 -3838 139 15296 36 -200 90 26.14 1020.387451171875 -141.77141202944878 9.178610848576543 68.0904206738257
2021-10-16 19:30:18.959481 141.75 238.25 -98.75 -2897 941 15464 227 -317 -157 26.16 1020.42578125 -152.01713042283043 10.780190707508488 64.59424903441047
2021-10-16 19:30:19.300333 135.75 231.375 -93.625 -1144 -96 14662 45 -549 -835 26.15 1020.404052734375 -163.7963757377164 11.86128650023422 59.24934261971451
2021-10-16 19:30:19.648692 119.125 236.5 -94.75 -1491 1291 16274 267 -240 -492 26.15 1020.38818359375 -175.08712522765924 13.066843629634267 54.47335054368701
2021-10-16 19:30:19.991202 107.375 235.0 -90.625 -407 1385 16580 -249 -333 -213 26.13 1020.415771484375 173.79008963593787 12.678246506919033 48.544237959810346
2021-10-16 19:30:20.329250 93.0 245.75 -88.25 -1760 804 14999 527 -336 -834 26.13 1020.471435546875 162.26208682297795 14.192815886319405 43.25524696356521
2021-10-16 19:30:20.672301 86.375 228.875 -74.375 -1835 648 15913 -562 -353 -773 26.14 1020.446533203125 151.48771949290258 14.360785609365427 36.02438862575983
2021-10-16 19:30:21.013646 70.25 239.375 -84.125 -3265 247 17111 474 -142 1379 26.14 1020.48583984375 143.70074568333413 13.569737473144345 31.16020833903808
2021-10-16 19:30:21.363002 70.625 213.5 -74.125 -3290 800 17156 -475 -438 -636 26.15 1020.44677734375 134.65681356962367 13.14576491850845 24.96136440272781
2021-10-16 19:30:21.704360 92.75 210.75 -63.375 -315 -1097 16149 -241 -389 260 26.16 1020.43896484375 129.40322197695804 9.87665902949131 18.886968096847177
2021-10-16 19:30:22.046483 91.625 210.125 -64.625 -149 -833 16324 19 0 1 26.16 1020.4453125 125.21857602964562 7.60495269145467 14.348362521388738
2021-10-16 19:30:22.380615 90.75 211.875 -66.0 -146 -797 16331 9 -1 1 26.18 1020.467041015625 121.99734013439918 5.71782672316549 10.657864571773437
2021-10-16 19:30:22.726383 93.625 216.25 -68.375 -146 -665 16389 -23 -2 0 26.17 1020.447021484375 119.66276991047278 4.234175476286538 7.747276161075957
2021-10-16 19:30:23.074371 90.25 215.0 -65.5 -144 -693 16321 -7 -2 0 26.17 1020.4384765625 117.83657378801237 3.1028547561082656 5.44896551432462
2021-10-16 19:30:23.419687 92.125 214.5 -67.5 -146 -685 16329 -26 -3 2 26.16 1020.507568359375 116.59643816109015 2.2785401000683576 3.6262903818913292
2021-10-16 19:30:23.759129 92.375 215.125 -65.75 -149 -625 16348 217 -4 -1 26.17 1020.422607421875 115.69500512281705 1.6980242695951262 2.610706031062517
2021-10-16 19:30:24.104566 90.25 214.625 -65.0 -161 -525 16331 9 -1 -1 26.17 1020.442626953125 114.95395380380468 1.2799667896446547 1.594367496509013
2021-10-16 19:30:24.450946 93.125 217.0 -69.0 -156 -490 16329 3 -2 0 26.19 1020.4404296875 114.49543924636764 1.0020527427945616 0.8339449652251573
2021-10-16 19:30:24.793243 121.5 213.75 -65.125 -315 -563 17985 258 -691 -580 26.19 1020.46435546875 114.599277547818 0.22774263451868515 0.7413403066053431
2021-10-16 19:30:25.134841 203.875 259.125 -106.25 6184 1649 13689 1967 -3481 -5 26.18 1020.462158203125 117.25760291652391 -9.456656380186287 5.14912706232086
2021-10-16 19:30:25.474549 222.75 297.875 -161.375 10256 6009 10296 1907 -764 -508 26.18 1020.45654296875 117.79445714492478 -16.764785823876974 12.474066664538261
2021-10-16 19:30:25.822215 201.875 294.375 -143.5 8533 8482 10040 -574 517 -316 26.15 1020.472412109375 117.36513149788503 -19.708398681474907 16.834784512877278
2021-10-16 19:30:26.162052 171.75 289.125 -127.875 6558 7744 11798 -443 1599 -370 26.15 1020.458251953125 116.83553315323572 -18.596419859161898 19.476955271530294
2021-10-16 19:30:26.505060 158.625 284.25 -118.125 4273 7726 13690 -215 337 15 26.15 1020.4658203125 116.37749969003495 -17.44994755957541 21.268302184586812
2021-10-16 19:30:26.848660 143.75 279.875 -112.125 4253 6548 14696 -159 842 -279 26.16 1020.464111328125 115.90625622629786 -15.534521684444574 21.623500306340997
2021-10-16 19:30:27.184633 140.375 279.25 -114.625 2333 6372 14515 39 150 67 26.16 1020.419677734375 115.63438194718294 -13.780973095133715 22.100495786848413
2021-10-16 19:30:27.530944 140.5 269.375 -119.625 2897 6345 15182 -45 139 76 26.18 1020.458251953125 115.70375225860924 -12.804166995844216 22.12113539590988
2021-10-16 19:30:27.869784 125.25 271.125 -126.5 1124 6153 15106 62 1004 12 26.18 1020.4208984375 115.69615188136957 -9.501771410103101 22.092860577129922
2021-10-16 19:30:28.211523 111.875 270.75 -136.0 -2525 6293 14386 78 638 50 26.18 1020.470458984375 115.10640912765628 -4.692073899591995 22.417992110006526
2021-10-16 19:30:28.554013 102.5 271.125 -138.375 -3943 7096 15179 -132 509 -29 26.18 1020.4755859375 114.0777479867203 -0.20956796477539757 22.6872341552113
2021-10-16 19:30:28.891576 97.0 269.25 -143.25 -4849 6473 14293 -57 117 -156 26.17 1020.425537109375 112.64282092458524 3.6465039171889715 22.85747737921017
2021-10-16 19:30:29.227746 95.25 273.625 -141.75 -4867 6039 14356 -70 213 92 26.17 1020.4560546875 111.69619742864053 6.718769664282991 22.700364808649336
2021-10-16 19:30:29.566610 81.625 265.125 -139.25 -5244 5765 14467 -380 223 -63 26.17 1020.45068359375 110.2204366664959 9.439357860931155 21.868533567509285
2021-10-16 19:30:29.911633 34.75 256.125 -168.75 -8084 4035 13124 -716 2515 -300 26.18 1020.46923828125 107.93548053798528 16.747684059589357 19.835308824795245
2021-10-16 19:30:30.251636 21.625 259.5 -207.75 -14470 4814 7448 -425 1279 540 26.18 1020.43994140625 106.37893989248387 25.249545341432288 20.914778067061114
2021-10-16 19:30:30.589145 9.0 258.5 -214.25 -15116 3823 6651 31 454 -324 26.19 1020.424560546875 102.26337049927355 32.25405378317341 21.440464434283648
2021-10-16 19:30:30.931105 13.75 263.0 -229.25 -14632 3134 4111 -321 395 296 26.2 1020.457275390625 99.86474801015063 39.07733719353318 22.57265787028566
2021-10-16 19:30:31.271656 30.5 278.875 -228.625 -14869 5651 3982 167 66 1034 26.19 1020.461669921875 101.12337129609307 43.458908235000415 27.829224316913354
2021-10-16 19:30:31.617145 58.5 296.75 -229.75 -13334 7365 3855 321 -386 1037 26.2 1020.42236328125 104.12399543887452 45.42429349440725 34.658304804350976
2021-10-16 19:30:31.958454 77.25 306.75 -231.875 -12022 10240 5063 94 -202 358 26.2 1020.462890625 107.14614779586155 45.417775594858 41.00250984670804
2021-10-16 19:30:32.296075 102.0 316.75 -231.0 -11337 10721 4136 66 -865 723 26.2 1020.45703125 110.52902209460339 44.05449599993595 46.921369040875796
2021-10-16 19:30:32.637105 115.25 327.625 -226.375 -8080 11839 7183 132 -1080 281 26.2 1020.449951171875 111.31381269526283 39.82137012793612 49.32215033865631
2021-10-16 19:30:32.977911 133.375 334.75 -218.125 -5554 12832 9075 42 -2347 144 26.19 1020.40771484375 110.02146191212873 33.073818719824565 49.0430399666202
2021-10-16 19:30:33.321044 159.75 329.125 -201.5 -1972 12040 9716 -650 -2695 803 26.18 1020.4296875 109.9670545787222 24.056180863500078 47.39602908541455
2021-10-16 19:30:33.659597 197.125 320.25 -207.625 4989 11771 10013 407 -2598 484 26.19 1020.431640625 110.46480159024735 12.526002807404794 47.62009530453343
2021-10-16 19:30:34.003916 232.875 290.875 -186.25 6876 8338 8591 -1127 -1078 1140 26.19 1020.40869140625 114.45278238081013 1.6422110955793636 44.72397527132729
2021-10-16 19:30:34.349009 260.125 259.25 -182.5 12832 5283 10576 -569 -585 410 26.2 1020.4501953125 118.45230357664228 -8.90195378564717 40.48845834650756
2021-10-16 19:30:34.688766 275.0 249.0 -186.5 13517 3030 8609 -311 -435 331 26.19 1020.457275390625 122.37999573879534 -18.9960648316385 36.65662101920591
2021-10-16 19:30:35.036219 282.25 235.0 -183.75 13943 1870 7217 -345 5 248 26.19 1020.442626953125 126.4068398727459 -27.905138614301883 32.78768342776658
2021-10-16 19:30:35.374077 283.75 233.0 -184.375 14933 1203 7210 4 -62 82 26.19 1020.45556640625 129.4561418953283 -35.60900159165793 29.589545092919842
2021-10-16 19:30:35.714979 285.625 220.25 -174.25 13473 677 8296 -231 451 408 26.2 1020.444091796875 133.83072489927542 -40.39777406179698 24.535081660290082
2021-10-16 19:30:36.057573 283.5 216.125 -166.25 14012 -581 8253 21 313 111 26.21 1020.43798828125 137.33363574516983 -44.42012064546962 19.89058058211669
2021-10-16 19:30:36.405971 258.875 214.25 -135.875 12883 -687 10704 225 1531 119 26.21 1020.47314453125 140.4998105947902 -43.673826864106026 15.250362375322927
2021-10-16 19:30:36.749552 224.125 217.0 -109.25 7892 -269 14166 -59 1305 81 26.21 1020.48486328125 141.49990964792713 -38.40657074240541 11.23911566038034
2021-10-16 19:30:37.094299 173.625 227.25 -96.75 4528 193 15394 681 2122 -831 26.19 1020.479248046875 138.96282391712612 -29.938722240645042 10.266332302803075
2021-10-16 19:30:37.438947 130.375 252.375 -108.625 -1346 2514 16355 829 1487 -254 26.2 1020.457275390625 135.27437936809005 -20.41148135789722 10.68032375390632
2021-10-16 19:30:37.781201 111.125 269.375 -125.0 -4041 3576 14777 569 909 -128 26.2 1020.473876953125 131.21867962820824 -12.129084771075929 11.467910520349713
2021-10-16 19:30:38.124923 96.0 286.375 -149.5 -6847 6482 13942 951 915 -52 26.21 1020.4521484375 127.20269665397429 -4.059633214886023 14.588184262417919
2021-10-16 19:30:38.472156 93.75 295.875 -167.0 -7886 8007 11707 397 154 -93 26.2 1020.442138671875 123.25684482937775 2.2995039128804 18.050174708135888
2021-10-16 19:30:38.815184 103.375 301.125 -168.625 -7282 8416 11894 213 -331 194 26.2 1020.4453125 120.30562956095889 6.370785532279374 21.1750254272425
2021-10-16 19:30:39.157325 119.5 308.75 -173.0 -6224 9556 11965 363 -367 307 26.2 1020.46240234375 118.47330015459792 8.810116491921587 24.91399653073891
2021-10-16 19:30:39.501391 134.0 310.375 -170.875 -3889 9980 11992 -103 -698 156 26.2 1020.46240234375 116.9516909920855 8.81705872337641 27.730576215622882
2021-10-16 19:30:39.844962 146.125 305.125 -162.125 -3311 9878 12651 -406 -877 297 26.21 1020.461669921875 116.14616554569963 8.077556120770074 29.26683823918956
2021-10-16 19:30:40.185995 165.25 301.25 -160.875 -977 8983 13442 -211 -835 98 26.21 1020.448974609375 115.72834904715285 5.93888560023518 29.87982939141309
2021-10-16 19:30:40.531216 189.75 282.125 -140.375 2055 7528 13897 -1076 -1207 577 26.21 1020.425048828125 116.93291823531673 1.1331983979715137 27.903828929538683
2021-10-16 19:30:40.875658 216.5 256.875 -127.5 4948 4806 14838 -839 -332 508 26.21 1020.46142578125 119.82791729002759 -3.5440086207254433 24.400445502780368
2021-10-16 19:30:41.216669 239.375 246.5 -138.375 7917 2494 13651 -224 -725 234 26.22 1020.46044921875 122.58280548759731 -9.997437302842037 21.223143301313545
2021-10-16 19:30:41.560804 233.25 239.5 -130.75 7579 2212 14562 -107 379 445 26.23 1020.43896484375 125.88987336532365 -13.346647038530085 18.266808446146705
2021-10-16 19:30:41.909599 213.75 251.0 -125.125 7152 2937 15210 -62 444 -564 26.22 1020.486328125 126.14621092568709 -14.960504341750738 16.80694318393979
2021-10-16 19:30:42.254716 153.375 251.875 -106.75 1753 3292 14449 -645 2118 -634 26.23 1020.435791015625 125.03871092188206 -9.938227953576346 14.963484833118567
2021-10-16 19:30:42.599756 120.625 244.5 -104.25 -1255 2696 15564 -98 532 -518 26.23 1020.4619140625 122.6902552951209 -6.0305925392953155 13.669311403517208
2021-10-16 19:30:42.943634 100.375 236.5 -92.625 -1889 1997 15712 -422 205 -434 26.23 1020.457275390625 120.10096093950682 -3.082640497599634 11.606048337482425
2021-10-16 19:30:43.285797 81.875 225.625 -88.125 -3638 952 15152 -476 140 -419 26.24 1020.470703125 117.39433395135138 0.38585142852238924 9.085552213638096
2021-10-16 19:30:43.627846 80.75 223.375 -83.0 -3483 -679 17098 49 -105 -191 26.24 1020.4775390625 115.33540259922773 2.301754163825209 6.626876220005915
2021-10-16 19:30:43.966103 94.25 227.0 -75.375 -3173 -6 17255 377 -1027 -417 26.25 1020.4833984375 113.70856750469501 2.4638395342403205 5.6745056875984154
2021-10-16 19:30:44.306529 107.875 221.125 -73.75 -161 62 16338 -34 -102 27 26.25 1020.47705078125 113.94548734313591 1.9548437088466284 4.460935400020838
2021-10-16 19:30:44.654565 110.0 222.375 -71.625 -163 -224 16328 -3 -3 -5 26.24 1020.483642578125 114.2169019590815 1.7203663279508585 3.3444640869736113
2021-10-16 19:30:44.997681 106.625 205.375 -63.625 -288 -563 16411 -229 7 330 26.24 1020.484375 115.1957898667706 1.6742405974370165 1.9114703057293743
2021-10-16 19:30:45.340351 78.25 174.875 -76.75 -1785 -3144 16339 -636 877 213 26.23 1020.484375 115.1028489939649 3.7909608573549143 -1.8117497506415874
2021-10-16 19:30:45.686036 38.0 149.5 -105.875 -6242 -5732 13614 -1155 1784 505 26.22 1020.481689453125 113.62142911784946 9.149117396067567 -8.03416107099721
2021-10-16 19:30:46.025835 42.75 133.375 -118.625 -8832 -7587 12274 -741 147 277 26.23 1020.465087890625 112.05123101161468 12.837431166137762 -13.805786007060128
2021-10-16 19:30:46.366780 25.875 144.875 -138.5 -9214 -7955 9465 -127 869 768 26.23 1020.451416015625 110.03557929722851 16.77930040739948 -18.748249601967963
2021-10-16 19:30:46.710486 11.75 177.125 -159.25 -13185 -5410 8639 503 585 625 26.24 1020.447509765625 107.82649037453353 21.078784116912487 -19.62867945107907
2021-10-16 19:30:47.104114 2.5 190.5 -180.625 -14847 -3243 6816 -169 1188 538 26.25 1020.454345703125 105.18261642969485 26.30769037391263 -19.73275828600355
2021-10-16 19:30:47.450742 8196.625 197.125 -178.875 -15865 -3277 5189 272 -35 67 26.25 1020.44482421875 119.34841899884772 37.763574361453706 -12.407484854254513
2021-10-16 19:30:47.787016 29.875 213.875 -154.625 -15162 -1564 7648 537 -1084 409 26.27 1020.42724609375 114.66808748622874 35.72362334639617 -10.819481419998228
2021-10-16 19:30:48.129881 60.5 240.625 -132.0 -11285 -4 11169 824 -1525 508 26.27 1020.495361328125 112.37430270475598 31.937974835795288 -7.2293830100799275
2021-10-16 19:30:48.474206 100.5 251.625 -114.875 -8800 2649 13982 444 -2312 -566 26.27 1020.458251953125 110.9405333328126 26.726281438556747 -3.4944507034584893
2021-10-16 19:30:48.814645 160.625 265.125 -116.125 -1879 3279 14218 474 -2276 -213 26.27 1020.468017578125 112.09352615465512 19.160079813651723 0.9032120654988836
2021-10-16 19:30:49.156855 206.125 287.875 -154.125 4958 5687 14623 1061 -2819 -566 26.26 1020.470458984375 113.36751009819568 8.174249125773036 6.667457142685374
2021-10-16 19:30:49.502097 245.0 284.375 -189.5 10230 6734 9160 65 -2134 8 26.25 1020.427001953125 116.01510088322777 -3.562123915008043 11.761410118858295
2021-10-16 19:30:49.844931 265.75 278.125 -216.125 14055 5669 5221 -109 -1524 290 26.27 1020.42041015625 118.90958993286786 -15.772872481782064 15.42460203334841
2021-10-16 19:30:50.183921 267.125 279.125 -218.5 14497 5757 2279 -175 126 38 26.27 1020.45556640625 120.75057324537005 -25.631867194442755 19.314341488541224
2021-10-16 19:30:50.521514 277.0 272.5 -220.375 15551 5552 2747 -124 -676 168 26.28 1020.4599609375 121.79400603007025 -35.74038094938265 22.583316625816135
2021-10-16 19:30:50.862885 275.375 260.375 -194.875 16099 4655 2532 -603 1269 975 26.3 1020.4521484375 124.90461742143478 -42.71689695000056 22.59681546427928
2021-10-16 19:30:51.204732 259.0 261.375 -170.625 14946 3693 6440 543 1478 203 26.3 1020.46875 126.24134006248592 -45.403521796635204 23.173037253502052
2021-10-16 19:30:51.552927 226.125 295.25 -187.0 13132 5574 8167 940 719 -1548 26.3 1020.47705078125 121.09881357289392 -44.75545581409614 28.43441066146513
2021-10-16 19:30:51.894862 178.25 321.125 -204.25 9031 10723 7261 -124 383 -1433 26.28 1020.461181640625 112.87018440769785 -40.91744250995759 35.85711280725709
2021-10-16 19:30:52.244599 124.625 324.5 -225.25 4860 13633 6118 288 397 -1013 26.27 1020.44091796875 105.78745186271948 -34.78204352703302 43.694240086408485
2021-10-16 19:30:52.588776 85.375 314.375 -242.75 1719 13814 7331 -788 2222 -801 26.26 1020.45556640625 103.65545014311253 -25.522005829652503 45.77010093187769
2021-10-16 19:30:52.928920 77.125 313.0 -266.875 -4762 12038 9232 -1270 2816 -122 26.27 1020.4560546875 105.17300412205083 -13.800021480840542 44.1398737416007
2021-10-16 19:30:53.275590 72.125 275.75 -242.125 -11071 10204 7151 -2492 4601 -761 26.27 1020.445556640625 108.35751796294682 2.215409802784576 41.66201228811518
2021-10-16 19:30:53.619625 18.625 243.875 -251.25 -15941 3326 933 -1407 1165 -814 26.27 1020.43115234375 106.06314907865375 16.07184910433371 40.76321588814814
2021-10-16 19:30:53.961280 8197.0 232.625 -281.625 -15031 1554 -1893 -419 1173 -1025 26.27 1020.448486328125 122.02586457595649 31.65427302868105 48.630407266435846
2021-10-16 19:30:54.300841 9.125 229.75 -290.375 -15171 1399 -3575 -241 -180 -28 26.28 1020.444580078125 117.30927434894961 41.929045778079136 50.88271379955367
2021-10-16 19:30:54.644102 16387.5 222.0 -285.0 -15537 722 -4039 -15 -265 -287 26.28 1020.437255859375 135.05960481678449 53.51736630413558 66.11986067066879
2021-10-16 19:30:54.987667 -8200.5 217.5 -252.375 -15665 -474 -1334 -32 -1444 -500 26.28 1020.472900390625 119.58953874210074 69.9492601765854 53.039063981680854
2021-10-16 19:30:55.328790 -11.625 201.0 -198.25 -16519 -2410 2317 404 -2682 -1275 26.29 1020.43359375 93.19729397402112 72.57594595505252 31.97108726932888
2021-10-16 19:30:55.672945 18.75 207.5 -134.75 -13480 -2511 9780 1493 -3013 -481 26.28 1020.474853515625 73.39132350598119 66.00982209914511 14.50871628726253
2021-10-16 19:30:56.013089 61.875 199.875 -91.875 -6683 -2183 15626 372 -2264 -723 26.28 1020.458740234375 66.25725960845678 55.8570624206463 4.564317997437483
2021-10-16 19:30:56.359644 78.375 199.875 -78.875 -2330 -1823 16304 249 -533 -153 26.28 1020.437255859375 66.45258278888643 47.811374728753364 0.4649719649891387
2021-10-16 19:30:56.701404 81.625 205.25 -77.5 -727 -1063 16476 111 -202 -29 26.29 1020.4833984375 69.05395175151435 40.737304114669385 -1.3095213898827984
2021-10-16 19:30:57.040897 90.5 206.5 -75.0 412 -1296 16510 -162 -129 91 26.29 1020.478759765625 72.59407634775951 34.57246516898674 -2.8707869404107926
2021-10-16 19:30:57.384242 98.625 219.125 -85.75 -1283 -1319 17139 56 187 732 26.29 1020.467041015625 77.24432477775531 30.959846353893962 -2.8990042999439005
2021-10-16 19:30:57.727619 69.75 228.25 -116.875 -4706 -891 15717 -78 2450 611 26.3 1020.44482421875 79.69150260916933 32.624264776271914 -2.7948247982553593
2021-10-16 19:30:58.075034 51.875 220.375 -140.75 -9989 859 13507 -574 1355 315 26.28 1020.46826171875 80.9671432501217 35.51422821433508 -1.9989394870088228
2021-10-16 19:30:58.417541 21.75 280.125 -182.875 -13996 1765 7074 -369 3004 1071 26.26 1020.45703125 83.38829093222513 44.79636141665746 1.456151570107802
2021-10-16 19:30:58.760290 9.375 261.625 -207.0 -13731 2707 3302 -540 1259 871 26.25 1020.4423828125 85.43014934955244 51.2246724602659 6.562243017217341
2021-10-16 19:30:59.104407 12.25 260.125 -237.75 -16066 5120 -902 -625 973 193 26.25 1020.462890625 88.87555899630092 58.2093732802219 14.442051741896336
2021-10-16 19:30:59.444613 -10.875 217.25 -223.0 -16429 1206 -90 -492 152 -1574 26.25 1020.433349609375 80.80771445796769 63.895829311729166 11.671300806918957
2021-10-16 19:30:59.786810 -15.375 171.25 -224.0 -16796 2045 -475 -2758 206 -646 26.27 1020.439208984375 77.19215675346642 68.45704199257324 10.469668297160528
2021-10-16 19:31:00.135112 -11.375 187.75 -270.25 -14910 -1265 -6719 -298 1506 1252 26.27 1020.4365234375 84.27993228027691 77.75009551404872 22.613825768450603
2021-10-16 19:31:00.474544 -8197.625 207.75 -294.375 -13637 1139 -8645 377 621 557 26.27 1020.454345703125 147.21008427358476 87.14515137614923 86.70805755023153
2021-10-16 19:31:00.821137 24576.25 222.875 -303.375 -13446 1957 -10096 254 303 727 26.28 1020.429443359375 -151.72383275990748 80.43386929234222 148.35269646652318
2021-10-16 19:31:01.159856 12.625 261.875 -292.5 -12374 3945 -10176 -1163 181 1137 26.3 1020.4306640625 -152.84147839122085 72.49885190634026 149.66378392214625
2021-10-16 19:31:01.498649 37.875 264.875 -332.75 -9578 5672 -12134 -501 1683 -150 26.3 1020.41845703125 -150.13889836737084 62.34925999068296 155.68793185232434
2021-10-16 19:31:01.838096 192.75 295.25 -358.875 -1263 8409 -12306 -1762 6698 720 26.31 1020.41748046875 -151.29479269965927 41.265677649113854 154.2558509752755
2021-10-16 19:31:02.184460 280.0 271.25 -257.625 15659 6127 1007 -542 3716 974 26.31 1020.438232421875 -155.02128882386242 25.366724003563462 149.9641931156766
2021-10-16 19:31:02.534233 264.125 269.5 -186.75 13925 4518 8079 -861 1192 287 26.31 1020.41748046875 -156.84840479389055 15.515939665742712 143.13009335987505
2021-10-16 19:31:02.874780 164.375 276.375 -120.75 5429 6985 12943 -1247 3648 -1506 26.29 1020.43017578125 -152.21612072533657 10.963463878042486 130.37831256160672
2021-10-16 19:31:03.219586 136.5 286.125 -130.375 595 6744 13778 269 864 -429 26.31 1020.4228515625 -153.19084234679067 10.648962506181858 118.71343480440109
2021-10-16 19:31:03.557685 132.0 273.75 -117.875 -3784 4781 14314 -761 -376 365 26.33 1020.44921875 -157.65581678619267 12.82840153694274 106.43416035013259
2021-10-16 19:31:03.893048 146.0 249.0 -102.25 918 4298 17440 -882 -880 535 26.33 1020.4365234375 -164.00006631164538 10.91767042424534 94.98730573355559
2021-10-16 19:31:04.237056 149.625 226.75 -90.125 -5752 819 14923 -225 -222 -1511 26.33 1020.419921875 -170.43151606270402 16.944553927393745 85.90728560557666
2021-10-16 19:31:04.583821 209.25 246.25 -111.375 4299 2390 14715 931 -1410 -145 26.31 1020.488037109375 179.58944308578455 12.424181332100979 78.04589488892367
2021-10-16 19:31:04.928977 299.125 207.75 -201.0 12279 -2187 11018 -584 -5484 1841 26.32 1020.4208984375 165.00080091429857 -1.8254797467541302 70.42684304102289
2021-10-16 19:31:05.273643 314.0 201.375 -241.625 17146 -3829 1162 -288 -321 149 26.31 1020.450439453125 159.32373627515602 -13.53508264976669 70.28347711530422
2021-10-16 19:31:05.614414 269.0 209.75 -350.375 15849 -3662 -4227 1096 -3311 -317 26.31 1020.435302734375 145.9830209245848 -24.384872266161445 78.13837154905704
2021-10-16 19:31:05.953108 97.625 150.0 -406.875 2474 -5637 -17878 2589 -7122 334 26.32 1020.4365234375 122.72538131783503 -24.402216332219865 97.90110123391572
2021-10-16 19:31:06.286554 41.5 141.25 -376.0 -7142 -6916 -11304 1024 -2610 651 26.33 1020.42578125 110.01295995916166 -16.280351534286815 110.54833175737089
2021-10-16 19:31:06.631805 24574.0 145.0 -329.125 -12262 -8063 -9686 265 -2632 361 26.31 1020.488525390625 115.7260298053479 -10.660238045678128 117.42508964186416
2021-10-16 19:31:06.969822 -10.5 118.625 -249.5 -13440 -7220 -3527 707 -2009 -200 26.3 1020.473388671875 111.12044595144276 5.629405230110378 123.05266981377044
2021-10-16 19:31:07.315312 62.0 129.0 -114.0 -11136 -10963 6503 1182 -6332 194 26.29 1020.42529296875 105.15252801768948 16.393939923629873 120.76922628791154
2021-10-16 19:31:07.667356 97.625 162.0 -76.625 -2187 -5286 17179 84 -3213 -845 26.31 1020.44970703125 102.50495141800602 17.980347126859783 104.02788021511509
2021-10-16 19:31:08.010894 120.75 170.5 -66.0 954 -3813 15520 136 -733 -330 26.32 1020.4677734375 103.95009411259966 14.173846711838227 86.44766528607946
2021-10-16 19:31:08.355964 141.125 176.875 -68.25 3437 -3145 15670 191 -773 128 26.32 1020.47998046875 107.08385129506321 7.309551002323924 69.73178083174854
2021-10-16 19:31:08.701969 184.875 210.75 -83.0 5311 -485 15177 862 -1519 -16 26.32 1020.462646484375 110.5027561848517 -0.8535483284764275 56.65610320399578
2021-10-16 19:31:09.033060 201.625 221.0 -88.875 7726 1512 13652 -20 -72 274 26.3 1020.47216796875 116.5251129625715 -8.633190180095255 45.96442688389621
2021-10-16 19:31:09.383798 207.25 228.875 -95.0 8795 2048 14095 480 -143 5 26.29 1020.423828125 120.67337712782187 -14.599742594057465 38.95639445159738
2021-10-16 19:31:09.725288 178.75 204.75 -74.5 7377 1244 15056 -435 1092 503 26.3 1020.46875 125.6980522945322 -16.79972461614338 30.629527455997152
2021-10-16 19:31:10.068524 129.125 176.5 -65.125 4689 -3061 16774 -115 2793 319 26.31 1020.465576171875 129.8611975258446 -13.519851585732281 21.542140017233887
2021-10-16 19:31:10.414684 106.375 166.125 -64.375 982 -4021 15697 -74 274 194 26.32 1020.47509765625 129.96658136557508 -11.497210658449468 13.982521608328982
2021-10-16 19:31:10.757135 101.125 185.5 -63.75 -546 -2348 16574 1337 74 26 26.32 1020.475830078125 128.3279826407044 -8.750714566503095 11.188265967972935
2021-10-16 19:31:11.099663 101.125 196.0 -67.125 -152 -1731 16266 105 1 8 26.32 1020.484619140625 126.4783550391997 -7.049291271682574 7.555453867616057
2021-10-16 19:31:11.445078 99.125 198.25 -65.5 -168 -1492 16195 163 -2 0 26.33 1020.434814453125 124.76247479211331 -5.71051529233635 4.9003761087369435
2021-10-16 19:31:11.785988 101.125 199.125 -61.5 -171 -1220 16300 30 -1 0 26.32 1020.4697265625 123.39773766680143 -4.603329638775963 2.835978626431638
